Time,Acc X,Acc Y,Acc Z,Gyro X,Gyro Y,Gyro Z
0.05,0.251,10.084,-3.615,0.061,2.622,-2.561
0.1,0.285,9.943,-3.584,-0.122,2.805,-2.439
0.15,0.271,9.826,-3.515,0.0,2.622,-2.256
0.2,0.271,9.847,-3.469,0.0,2.683,-2.622
0.25,0.292,9.898,-3.493,0.183,2.622,-2.5
0.3,0.45,9.869,-3.457,0.0,2.561,-2.378
0.35,0.184,9.845,-3.587,-0.122,2.561,-2.439
0.4,0.163,9.859,-3.61,-0.122,2.561,-2.439
0.45,0.242,9.85,-3.479,-0.061,2.561,-2.5
0.5,0.259,9.864,-3.421,0.122,2.683,-2.317
0.55,0.287,9.9,-3.577,15.488,2.561,-2.378
0.6,0.393,9.895,-3.508,-15.61,2.805,-2.439
0.65,0.232,9.835,-3.385,15.549,2.561,-2.378
0.7,0.153,9.946,-3.378,-0.122,2.439,-2.378
0.75,0.18,9.993,-3.644,0.183,2.317,-2.439
0.8,0.256,9.929,-3.551,-0.183,2.317,-2.5
0.85,0.259,9.929,-3.524,-0.366,2.317,-1.89
0.9,0.014,9.792,-3.395,0.488,1.768,-2.5
0.95,0.431,9.826,-3.601,-15.488,2.012,-2.073
1.0,0.034,10.013,-3.654,-0.244,2.073,-2.317
1.05,0.232,9.835,-3.606,-0.366,2.927,-2.5
1.1,0.113,9.85,-3.639,-0.244,2.866,-2.317
1.15,0.12,9.926,-3.376,-15.549,2.622,-2.195
1.2,0.443,10.058,-3.57,15.488,2.805,-2.5
1.25,0.599,10.262,-3.8,0.488,2.561,-2.378
1.3,0.06,10.087,-3.67,-0.854,1.28,-2.256
1.35,0.345,9.706,-3.46,0.305,3.902,-2.561
1.4,0.345,10.058,-3.668,0.61,0.427,-2.927
1.45,0.177,10.003,-3.376,0.366,1.098,-2.439
1.5,0.505,10.211,-3.692,-0.366,4.878,-2.744
1.55,0.05,9.936,-3.972,-0.671,0.793,-1.829
1.6,0.388,10.089,-3.345,-0.305,4.268,-3.902
1.65,0.311,9.929,-3.419,0.061,3.78,-2.683
1.7,0.0,9.871,-3.694,0.61,1.768,-1.28
1.75,0.33,9.878,-3.785,0.61,3.293,-3.171
1.8,0.201,9.878,-3.433,-1.28,3.049,-3.659
1.85,0.06,9.819,-3.524,-0.244,2.195,-1.646
1.9,0.086,9.922,-3.481,15.549,2.866,-2.317
1.95,0.232,10.048,-3.634,0.122,2.683,-3.11
2.0,0.134,9.962,-3.821,15.549,2.5,-2.561
2.05,0.129,9.634,-3.627,9.756,1.951,-2.622
2.1,0.225,9.392,-3.627,13.72,1.646,-1.585
2.15,0.132,9.795,-4.061,9.39,3.293,-1.22
2.2,-0.419,9.527,-3.989,7.5,1.829,0.671
2.25,0.316,9.692,-4.231,-4.695,3.232,1.524
2.3,0.747,9.886,-3.965,-6.524,1.829,1.524
2.35,0.529,10.238,-4.681,-13.659,-0.061,-1.524
2.4,0.728,9.886,-3.979,-12.927,1.28,-1.098
2.45,0.23,9.347,-3.105,-14.329,1.707,-3.537
2.5,-0.29,10.12,-3.639,-13.963,-0.671,1.463
2.55,0.297,10.051,-3.048,-11.22,2.805,1.524
2.6,0.723,9.519,-3.038,-9.878,0.305,-1.28
2.65,0.836,9.239,-2.629,-4.146,6.159,-2.195
2.7,0.498,10.422,-2.763,-5.732,-0.366,0.427
2.75,0.594,11.179,-3.089,-0.61,2.805,-5.61
2.8,0.342,10.47,-3.215,-11.951,3.293,-2.683
2.85,0.424,10.542,-2.586,-4.817,0.732,-0.244
2.9,0.388,10.099,-2.842,6.037,-2.073,-3.537
2.95,-0.043,9.787,-3.057,9.512,2.256,-0.976
3.0,0.342,9.895,-3.764,0.305,2.622,-1.341
3.05,1.015,9.828,-3.359,-3.841,6.341,-4.817
3.1,-0.304,10.111,-3.316,-6.159,2.5,-4.512
3.15,0.678,9.852,-2.722,0.549,1.768,-1.463
3.2,0.527,9.946,-2.873,4.146,1.037,-1.951
3.25,0.345,9.55,-3.39,3.415,4.024,-2.134
3.3,0.481,10.398,-3.132,-3.78,3.354,-1.707
3.35,1.188,9.962,-3.273,-4.207,3.72,-2.317
3.4,0.074,10.197,-3.378,-1.28,4.695,-4.146
3.45,-0.235,10.3,-2.638,3.415,4.024,-2.073
3.5,0.903,9.747,-2.861,2.683,4.512,-1.951
3.55,0.67,10.08,-3.33,-0.305,1.951,-1.89
3.6,0.97,10.25,-3.505,-2.317,0.305,-1.28
3.65,0.35,9.5,-2.954,-1.22,2.561,-0.915
3.7,0.318,9.919,-2.998,1.159,1.463,-1.463
3.75,0.666,10.271,-2.842,1.951,3.537,-3.049
3.8,0.587,9.955,-3.201,2.622,2.988,-2.866
3.85,0.271,9.814,-3.287,-0.305,6.341,-1.463
3.9,0.373,9.708,-3.213,-2.683,3.293,-1.951
3.95,0.462,10.398,-2.473,-5.61,2.744,-3.354
4.0,0.034,10.137,-2.988,-3.293,5.122,-2.622
4.05,0.352,10.233,-2.602,2.073,3.354,-1.28
4.1,0.409,9.804,-2.476,6.463,4.634,1.646
4.15,0.735,10.226,-2.761,15.549,5.366,-2.805
4.2,0.68,9.852,-3.117,0.061,3.415,-2.5
4.25,0.57,9.917,-3.563,13.11,0.732,-5.549
4.3,0.543,10.649,-4.269,5.732,2.805,-1.89
4.35,0.187,9.62,-3.247,2.805,-0.61,0.549
4.4,0.239,9.718,-3.577,2.256,5.854,0.488
4.45,0.733,9.627,-2.902,7.5,2.561,-5.854
4.5,0.742,9.902,-3.4,11.768,3.049,-7.378
4.55,-0.024,9.675,-3.9,4.939,2.805,0.366
4.6,0.232,10.149,-4.441,-15.488,1.585,-0.061
4.65,0.927,10.123,-3.28,-5.671,3.171,-4.146
4.7,0.493,9.503,-3.381,-8.415,4.207,-3.354
4.75,0.939,10.463,-4.81,-19.634,3.293,2.439
4.8,0.278,9.673,-2.823,-39.146,-3.049,5.793
4.85,1.034,9.912,-2.696,-41.463,-6.829,4.634
4.9,0.879,9.993,-2.377,-39.573,-13.902,2.988
4.95,0.67,9.649,-2.643,-32.073,-13.415,1.646
5.0,0.673,9.883,-2.535,-32.927,-14.085,0.854
5.05,0.594,10.417,-1.317,-46.829,-13.537,1.829
5.1,0.467,10.204,-1.472,-24.451,-16.768,-3.72
5.15,1.372,10.235,-0.994,-18.902,-17.927,-7.683
5.2,0.814,9.883,-1.319,-21.524,-31.22,-5.305
5.25,0.797,10.76,-0.85,-22.561,-15.0,-7.561
5.3,0.692,10.415,-1.164,-22.561,-14.756,-12.622
5.35,1.094,9.742,-0.508,-27.561,-11.341,-15.061
5.4,0.182,10.068,-0.165,-27.5,-9.085,-10.0
5.45,0.618,10.408,0.072,-21.707,-9.756,-17.927
5.5,0.596,9.11,0.857,1.341,-11.22,-21.646
5.55,-0.407,10.235,0.354,14.878,4.39,-5.976
5.6,-0.903,9.814,-0.17,13.537,5.183,-0.305
5.65,0.804,10.475,-0.546,2.683,1.22,4.451
5.7,0.651,9.503,0.014,5.854,4.634,2.561
5.75,0.005,9.974,0.472,22.866,5.305,-3.232
5.8,0.204,10.348,-0.673,35.366,-0.61,-7.988
5.85,-0.132,9.898,-1.293,32.439,0.854,-9.817
5.9,-0.666,10.144,-1.319,25.61,4.268,-7.378
5.95,-1.001,10.448,-1.566,13.537,5.0,-1.098
6.0,-0.934,9.754,-0.946,16.463,4.878,-1.037
6.05,-0.534,9.934,-1.87,15.61,1.707,0.61
6.1,-0.235,9.977,-2.172,8.171,3.78,-2.5
6.15,0.029,11.181,-1.865,1.402,6.22,2.256
6.2,0.737,10.364,-1.609,5.793,7.622,-0.305
6.25,0.314,10.444,-2.1,2.439,5.61,-0.488
6.3,0.998,10.654,-1.702,4.695,11.585,-10.732
6.35,0.431,11.111,-1.671,11.341,9.878,-8.049
6.4,1.214,10.271,-2.416,9.329,9.817,-17.683
6.45,0.706,10.901,-2.392,-3.598,11.524,-7.378
6.5,-0.821,10.058,-1.999,-4.39,-3.415,-5.793
6.55,0.333,9.476,-2.088,1.524,5.0,-2.195
6.6,0.493,9.122,-2.164,8.415,13.171,1.037
6.65,-0.012,10.587,-2.011,4.756,24.817,2.378
6.7,0.34,10.455,-2.306,4.329,21.829,1.829
6.75,-0.151,10.132,-2.887,-6.402,17.866,-3.049
6.8,-0.113,10.472,-2.725,-11.89,20.671,-0.793
6.85,0.12,9.347,-1.573,-10.549,20.854,0.427
6.9,-0.041,10.508,-1.535,-5.244,13.72,-3.902
6.95,0.409,10.671,-1.446,-0.671,0.915,-2.622
7.0,-0.378,10.623,-2.294,-5.0,18.171,-1.707
7.05,-0.299,9.56,-1.824,-1.768,16.89,-1.89
7.1,0.565,11.483,-1.372,-0.305,13.171,-2.073
7.15,0.702,8.566,-2.16,0.793,15.915,-3.049
7.2,-0.153,10.025,-1.662,-2.195,12.744,14.878
7.25,0.579,10.455,-2.531,-5.244,12.256,-3.659
7.3,0.383,10.582,-1.386,-6.159,12.866,-11.22
7.35,0.124,10.494,-1.87,-5.061,3.171,-5.976
7.4,0.625,9.56,-1.724,-3.049,4.024,-4.39
7.45,-0.153,10.125,-1.413,1.402,3.049,-0.183
7.5,0.026,10.075,-2.071,3.598,2.988,1.22
7.55,0.718,10.173,-1.913,-0.122,2.805,-2.622
7.6,0.041,10.264,-1.805,-2.073,2.439,-6.22
7.65,-0.366,10.022,-1.65,0.061,2.927,-1.463
7.7,-0.266,10.159,-1.832,1.159,2.805,0.854
7.75,0.589,9.852,-1.846,1.159,2.317,-3.537
7.8,0.481,10.13,-1.911,-0.854,2.439,-5.488
7.85,-0.213,10.089,-1.832,-1.341,2.561,-2.439
7.9,-0.225,9.993,-1.798,-0.671,2.439,-0.366
7.95,0.378,9.974,-1.832,1.037,2.256,-3.11
8.0,0.359,10.104,-1.92,0.671,2.988,-4.024
8.05,-0.079,10.056,-1.743,-0.915,2.805,-1.768
8.1,-0.079,10.23,-1.805,-0.488,2.5,-0.793
8.15,0.208,10.068,-1.726,0.854,2.866,-2.256
8.2,0.05,10.132,-1.87,15.427,2.683,-3.049
8.25,-0.11,10.127,-1.76,-0.793,2.805,-2.134
8.3,0.057,10.065,-1.729,0.488,2.622,-2.439
8.35,0.038,9.962,-1.781,0.854,2.561,-2.5
8.4,0.074,10.022,-1.69,15.549,2.988,-2.439
8.45,0.232,9.737,-1.353,2.744,2.744,-1.585
8.5,0.5,9.821,-1.477,-3.354,3.598,-2.317
8.55,0.627,10.161,-1.437,-2.744,4.085,-2.317
8.6,-0.05,10.331,-1.563,1.89,2.988,-3.232
8.65,0.699,9.385,-1.839,6.524,2.988,-7.134
8.7,0.045,10.372,-2.737,1.159,3.537,-9.207
8.75,-0.251,10.436,-2.313,-3.963,5.488,-5.427
8.8,-0.017,10.226,-0.986,-3.659,2.622,-2.622
8.85,-0.192,9.914,-1.599,3.841,2.683,-0.793
8.9,0.589,10.233,-1.887,4.024,3.415,-5.671
8.95,0.407,10.542,-1.848,-2.134,3.78,-5.915
9.0,-0.055,9.761,-1.453,-0.244,3.11,-4.939
9.05,0.038,10.132,-1.707,0.061,5.61,-8.293
9.1,-0.187,10.465,-1.884,-0.854,3.659,-4.756
9.15,-0.06,10.084,-2.174,-3.902,3.902,-3.11
9.2,-0.453,10.013,-1.669,-15.488,4.695,-5.061
9.25,-0.323,10.175,-1.853,2.927,3.78,-7.073
9.3,-0.299,9.965,-2.176,1.463,3.11,-4.024
9.35,-0.426,9.862,-1.386,-0.671,2.378,-1.402
9.4,-0.797,9.902,-1.542,-15.122,4.329,-2.195
9.45,-0.326,10.396,-1.614,0.793,8.049,-4.939
9.5,0.357,11.1,-2.011,-6.22,1.463,-18.11
9.55,0.168,10.556,-1.784,-10.793,2.439,-31.463
9.6,-0.115,10.23,-1.551,-9.634,10.061,-24.634
9.65,-0.249,9.744,-1.312,-5.366,12.988,-29.817
9.7,-0.62,10.331,-1.439,-7.805,15.0,-29.39
9.75,-1.942,10.151,-1.923,-6.037,19.024,-18.72
9.8,-3.333,10.276,-1.154,-15.122,13.171,-3.537
9.85,-1.987,10.142,-1.695,-16.22,10.305,2.378
9.9,-1.348,10.068,-1.106,-13.902,11.707,-2.073
9.95,-1.767,9.538,-1.259,-11.829,17.012,15.183
10.0,-0.982,9.946,-0.572,-8.293,22.561,4.329
10.05,-2.011,9.948,-0.682,-2.805,22.256,5.915
10.1,-1.597,10.47,-1.092,15.061,20.244,11.037
10.15,-1.923,9.1,-1.164,4.878,16.463,13.11
10.2,-1.003,9.924,-1.793,8.598,2.683,5.427
10.25,-0.39,10.606,-1.547,-3.293,1.28,3.232
10.3,-0.486,9.744,-1.276,-6.28,-0.854,-3.354
10.35,-0.946,10.015,-0.821,-4.634,-0.549,-5.183
10.4,-0.79,9.189,-0.912,-1.159,2.988,-5.183
10.45,-1.13,10.195,-0.481,6.098,6.524,-11.159
10.5,-0.579,10.214,-1.053,11.646,7.561,-19.329
10.55,-0.388,10.63,-1.094,10.488,3.476,-25.305
10.6,-0.977,10.793,-2.2,5.488,5.793,-29.573
10.65,-1.132,9.926,-1.621,0.732,2.5,-39.085
10.7,-1.556,9.27,-1.721,-4.817,2.195,-38.72
10.75,-2.456,9.685,-1.911,-7.378,1.89,-40.61
10.8,-3.773,8.961,-1.602,-7.012,3.72,-33.232
10.85,-4.104,9.706,-1.211,-0.793,6.524,-31.768
10.9,-4.585,9.024,-1.257,3.171,6.159,-20.061
10.95,-3.979,9.108,-1.556,6.098,8.11,-22.683
11.0,-3.912,9.546,-1.975,3.293,14.146,-28.11
11.05,-3.57,9.017,-1.484,0.61,13.537,-22.256
11.1,-4.944,10.108,-1.314,-2.195,5.549,-13.11
11.15,-4.501,8.806,-2.449,-6.524,3.659,-5.427
11.2,-4.111,8.133,-1.642,-3.598,2.622,-5.488
11.25,-4.621,8.753,-1.235,-1.22,1.402,-2.622
11.3,-3.326,9.424,-1.211,-15.305,2.805,-3.415
11.35,-4.061,8.641,-0.804,-1.646,3.902,-4.512
11.4,-4.013,8.871,-2.296,-11.159,2.134,-9.817
11.45,-3.764,8.966,-1.549,-11.341,3.659,-14.756
11.5,-4.573,9.632,-0.898,-11.159,1.28,-5.915
11.55,-3.996,8.389,-1.628,0.183,2.439,-6.707
11.6,-4.597,8.942,-1.276,-14.756,3.293,-6.524
11.65,-4.12,9.527,-1.18,-1.22,0.671,-10.61
11.7,-4.899,9.17,-0.728,-4.146,1.22,-9.756
11.75,-4.082,8.564,-1.07,-4.939,1.768,-8.232
11.8,-4.755,9.234,-1.262,-4.207,1.707,-7.439
11.85,-4.664,8.04,-0.893,-8.537,-2.439,-13.049
11.9,-4.99,8.784,-0.967,-16.829,-10.976,-13.78
11.95,-5.164,8.495,-0.345,-13.72,-13.78,-15.732
12.0,-4.688,9.055,-0.316,-13.78,-4.329,-5.0
12.05,-5.488,8.052,0.244,-3.537,-0.915,-10.549
12.1,-5.205,8.346,-0.048,-2.134,0.976,-2.561
12.15,-4.875,8.282,0.06,3.841,6.037,1.341
12.2,-4.752,9.16,-0.819,5.427,9.39,-15.305
12.25,-5.013,9.026,-0.788,5.732,6.768,-0.549
12.3,-4.286,8.672,-1.468,15.183,0.488,-5.488
12.35,-4.841,8.028,-0.263,-6.463,-1.098,-4.817
12.4,-5.116,8.538,-0.46,-1.951,1.22,-5.549
12.45,-5.176,8.14,-0.096,0.671,0.671,-1.524
12.5,-5.641,8.018,0.06,2.439,5.244,0.366
12.55,-5.768,8.42,-0.778,5.366,3.902,3.476
12.6,-4.685,8.152,-0.16,4.268,2.012,4.268
12.65,-4.432,8.612,-0.601,0.976,2.439,-1.159
12.7,-5.308,8.6,-0.567,1.89,3.232,4.024
12.75,-4.884,7.992,-0.124,3.841,4.939,2.683
12.8,-4.966,8.353,-0.718,8.902,8.72,1.098
12.85,-4.293,8.641,-0.627,8.659,10.427,4.817
12.9,-5.009,9.122,-1.367,6.951,7.988,5.854
12.95,-4.676,8.801,-1.049,5.061,7.5,0.793
13.0,-4.439,9.005,-1.188,0.671,5.915,1.402
13.05,-3.847,8.988,-0.776,5.305,4.085,-0.488
13.1,-4.678,8.746,-1.104,0.732,5.671,-1.098
13.15,-4.386,9.074,-0.967,-0.793,4.878,0.61
13.2,-4.59,8.928,-0.771,6.22,2.866,-5.122
13.25,-4.408,8.806,-1.477,-2.317,2.012,15.488
13.3,-4.135,8.78,-0.694,-0.915,1.768,-4.329
13.35,-4.762,8.641,-1.049,-15.61,2.256,-2.439
13.4,-4.453,9.11,-0.998,1.829,3.293,-1.829
13.45,-4.559,8.871,-1.087,0.244,2.378,-3.049
13.5,-4.446,8.648,-1.032,-2.195,2.195,-2.317
13.55,-4.559,8.875,-0.702,-0.488,1.768,-2.927
13.6,-4.499,8.54,-0.737,1.098,3.232,-2.012
13.65,-4.278,8.83,-0.905,0.61,2.744,-3.049
13.7,-4.652,8.758,-1.298,-1.159,2.073,-2.622
13.75,-4.518,8.813,-1.006,-0.854,2.256,-2.378
13.8,-4.506,8.674,-0.917,1.098,3.11,-1.89
13.85,-4.525,8.794,-0.967,0.671,2.988,-1.89
13.9,-4.494,8.641,-0.943,-1.159,1.89,-2.988
13.95,-4.685,8.746,-0.869,0.061,2.805,-2.073
14.0,-4.561,8.923,-0.996,0.854,3.049,-2.378
14.05,-4.683,8.811,-1.123,-0.366,2.561,-2.439
14.1,-4.515,8.76,-1.195,-0.976,1.89,-2.134
14.15,-5.025,8.657,-1.025,-0.427,1.524,2.744
14.2,-4.647,9.064,-0.974,-2.317,1.159,2.683
14.25,-4.18,8.83,-0.812,-2.134,0.61,1.89
14.3,-4.592,8.691,-0.946,1.341,1.28,1.341
14.35,-4.52,8.581,-0.936,0.305,2.561,3.11
14.4,-4.152,8.835,-0.632,0.61,2.805,3.72
14.45,-4.288,9.057,-0.965,0.183,2.134,2.561
14.5,-3.912,8.966,-0.792,-0.244,2.256,1.89
14.55,-4.142,9.098,-1.006,-2.622,1.341,1.402
14.6,-4.35,8.957,-0.845,-2.866,1.22,2.012
14.65,-4.118,9.074,-0.874,-4.329,-15.549,1.951
14.7,-4.549,9.007,-0.838,0.671,0.793,3.72
14.75,-4.427,9.103,-1.063,-2.927,1.89,3.537
14.8,-3.845,9.179,-0.84,-0.915,1.646,1.89
14.85,-2.772,9.122,-0.567,3.72,4.939,-2.866
14.9,-4.266,9.424,-1.346,-3.232,1.829,-3.415
14.95,-4.044,8.954,-0.678,-3.78,0.915,-3.841
15.0,-3.965,8.902,-0.527,0.488,1.829,-3.049
15.05,-4.089,8.985,-0.785,1.707,3.415,-0.61
15.1,-4.092,8.926,-1.274,1.463,1.22,2.134
15.15,-4.475,8.686,-0.838,-3.11,-1.098,8.841
15.2,-4.46,8.823,-0.56,-3.11,-2.805,13.902
15.25,-4.092,8.945,-0.378,6.341,-0.549,21.402
15.3,-3.804,9.313,-0.136,11.89,1.768,21.22
15.35,-3.388,10.005,-1.149,8.78,7.378,22.561
15.4,-2.957,9.618,-0.922,1.89,6.646,20.854
15.45,-2.224,9.29,-0.881,2.622,1.524,30.671
15.5,-2.78,9.385,-0.84,-2.012,0.183,16.829
15.55,-2.617,9.67,-0.946,-2.866,15.305,18.354
15.6,-2.365,10.195,-0.771,2.256,2.195,17.5
15.65,-2.258,10.245,-0.931,1.28,3.902,16.341
15.7,-2.497,9.67,-0.639,0.122,2.622,15.793
15.75,-2.389,9.27,-0.713,0.793,1.524,18.78
15.8,-2.076,9.744,-0.481,1.28,2.134,18.841
15.85,-0.998,9.876,-0.524,8.659,3.11,-0.549
15.9,-1.559,10.07,-1.729,-1.707,2.988,-3.293
15.95,-1.65,10.096,-1.312,-6.341,1.402,-5.549
16.0,-1.875,9.917,-0.594,-3.171,2.561,-2.073
16.05,-1.788,9.938,-0.704,5.732,2.195,2.195
16.1,-1.513,9.828,-1.14,2.988,4.329,0.122
16.15,-1.566,9.515,-1.109,-1.829,1.341,-2.927
16.2,-1.489,9.536,-0.481,1.768,-0.671,-2.134
16.25,-2.025,9.39,-0.824,6.28,-4.756,3.293
16.3,-1.401,9.864,-0.984,2.683,-8.293,6.402
16.35,-0.998,9.845,-1.113,-0.305,-8.659,13.659
16.4,-1.494,9.821,-0.577,1.463,-9.695,11.524
16.45,-1.875,9.931,-0.39,14.207,-11.098,8.293
16.5,-1.192,10.187,-1.8,12.195,-7.988,10.488
16.55,-0.663,10.077,-1.487,4.817,-8.11,11.524
16.6,-0.879,10.032,-1.906,1.402,-7.256,13.537
16.65,-0.79,9.371,-1.113,0.183,-9.573,0.854
16.7,-0.553,9.917,-0.895,-1.646,-10.61,14.268
16.75,-0.553,10.168,-1.185,-1.159,-11.098,15.061
16.8,-0.692,10.633,-0.778,0.061,-11.341,16.585
16.85,-0.795,9.596,-1.298,1.951,-8.841,19.634
16.9,-0.043,9.469,-1.013,1.28,-8.537,16.768
16.95,1.595,10.077,-1.298,-10.244,1.098,15.183
17.0,0.721,9.838,-0.862,-10.976,-0.549,-1.28
17.05,0.364,10.479,-1.257,-2.134,2.378,4.939
17.1,0.254,10.108,-1.058,3.415,1.646,-4.085
17.15,-0.388,10.187,-1.621,-2.988,3.232,-2.805
17.2,-0.467,9.969,-1.535,-3.537,-2.073,-0.488
17.25,0.685,9.922,-0.79,1.098,-2.195,-13.78
17.3,0.424,10.511,-1.209,1.829,-4.329,-10.61
17.35,0.043,10.568,-0.826,1.159,-0.915,-17.439
17.4,0.385,9.625,-1.259,-0.061,-1.89,-11.098
17.45,-0.17,9.471,-0.857,3.598,-3.293,-11.098
17.5,-0.419,9.888,-1.041,6.22,-0.244,-12.622
17.55,-0.024,10.453,-1.197,4.146,-0.488,-9.512
17.6,-0.51,10.197,-1.128,-1.402,15.244,-0.061
17.65,-1.245,9.969,-1.188,8.598,2.195,-10.976
17.7,-0.632,9.359,-0.915,8.841,1.037,-8.232
17.75,-0.982,10.173,-1.674,1.585,-1.89,-7.805
17.8,-1.044,10.345,-0.939,0.976,-0.183,-6.707
17.85,-0.974,9.699,-1.35,8.415,3.11,-3.293
17.9,-0.9,9.957,-1.262,9.207,0.366,-1.037
17.95,-0.263,10.281,-1.544,3.598,0.732,-0.427
18.0,-0.038,10.168,-1.683,-0.732,2.195,-3.11
18.05,-0.153,9.764,-1.508,0.671,3.78,-1.89
18.1,-0.476,10.307,-1.329,1.585,5.549,-5.488
18.15,-0.735,10.575,-2.138,2.439,-0.244,1.22
18.2,-0.026,10.376,-1.721,2.622,4.329,1.951
18.25,0.086,10.53,-1.24,1.341,-0.549,-0.671
18.3,-0.122,10.774,-1.877,-6.524,5.183,1.28
18.35,0.373,10.475,-1.219,-14.024,5.183,-4.512
18.4,-0.845,10.156,-1.164,-30.732,7.195,-4.878
18.45,-0.615,9.845,-0.764,-30.427,11.402,2.805
18.5,-0.848,10.772,-1.051,-15.549,6.159,15.427
18.55,-0.687,10.142,-0.831,-8.415,10.061,2.622
18.6,0.172,10.376,-0.12,-4.329,9.207,3.963
18.65,0.103,9.529,-0.017,3.171,12.622,6.402
18.7,0.043,10.118,-0.584,14.329,9.878,6.341
18.75,-1.753,10.139,-1.556,18.354,29.146,10.305
18.8,-0.05,10.199,-1.626,13.72,7.744,9.451
18.85,0.089,10.046,-2.105,20.366,14.146,5.061
18.9,-0.249,10.772,-3.711,7.866,7.439,0.732
18.95,-0.05,10.446,-3.148,-15.549,0.305,1.098
19.0,-0.127,10.099,-1.879,-35.0,-2.5,-7.317
19.05,0.215,10.029,0.177,-19.268,7.134,1.646
19.1,0.697,9.778,0.048,13.354,1.646,-17.5
19.15,0.29,10.077,-0.74,34.024,0.732,-17.988
19.2,-1.36,9.814,-2.126,44.878,-6.524,-12.5
19.25,-1.417,10.704,-2.296,62.073,1.341,-2.073
19.3,-0.692,11.092,-3.139,39.573,-1.341,4.512
19.35,-0.527,9.895,-2.959,38.232,15.488,1.159
19.4,-0.263,10.537,-4.08,23.171,-1.098,2.866
19.45,0.024,9.701,-3.642,18.963,-2.378,-0.122
19.5,-0.127,9.749,-3.393,22.805,-3.78,-1.402
19.55,-0.357,10.123,-3.912,19.573,-6.037,-1.098
19.6,-0.316,10.214,-4.041,19.939,-6.951,-0.549
19.65,-0.189,10.087,-4.085,20.854,-4.146,-1.22
19.7,-0.335,9.412,-4.123,26.951,-8.415,1.159
19.75,-0.828,9.29,-4.013,28.476,-15.366,3.598
19.8,-0.067,9.773,-4.642,10.244,4.817,10.549
19.85,0.115,9.802,-5.217,1.768,23.841,15.976
19.9,-0.599,10.424,-5.602,-23.476,6.402,8.171
19.95,0.39,9.565,-4.683,-23.598,4.024,7.195
20.0,1.207,9.388,-3.622,-0.488,2.622,-6.341
20.05,0.323,10.034,-4.005,-12.256,5.488,-0.305
20.1,0.17,9.23,-3.677,-6.463,2.561,-5.183
20.15,0.239,9.222,-3.867,-5.183,2.683,-10.244
20.2,0.141,10.228,-3.886,-8.598,-1.463,-4.451
20.25,-0.304,9.606,-3.594,-5.488,5.854,-0.61
20.3,-0.397,9.653,-3.476,-1.768,2.134,-0.671
20.35,0.275,9.507,-4.166,6.951,5.061,-1.646
20.4,0.417,9.855,-4.034,4.146,2.805,-2.561
20.45,0.314,9.756,-4.59,-0.793,1.524,-3.171
20.5,0.163,9.548,-4.005,-5.427,2.988,-4.024
20.55,0.019,9.847,-3.103,-2.683,2.866,-2.195
20.6,0.201,9.823,-3.826,1.585,3.232,-1.22
20.65,0.369,10.041,-4.484,-1.402,3.171,-3.171
20.7,0.007,9.912,-4.063,-3.11,2.073,-2.378
20.75,0.065,10.13,-3.845,-3.476,2.805,-2.805
20.8,0.352,9.914,-3.642,-15.61,2.622,-2.439
20.85,0.139,9.917,-3.97,1.037,2.805,-2.927
20.9,-0.065,9.708,-3.903,15.427,2.256,-2.073
20.95,0.012,9.957,-3.903,-1.524,2.195,-1.707
21.0,-0.129,9.883,-3.97,-15.488,2.012,-2.134
21.05,0.196,9.641,-4.278,-5.366,2.866,-3.11
21.1,0.414,9.778,-4.046,-13.11,4.573,-2.012
21.15,0.069,10.048,-3.5,-14.939,15.488,-2.683
21.2,0.093,9.819,-3.34,-11.829,1.159,-4.024
21.25,0.862,9.728,-2.701,-6.646,1.646,-1.402
21.3,0.381,9.74,-2.784,1.098,0.915,-2.622
21.35,0.086,9.85,-2.801,6.707,2.744,-2.256
21.4,-0.065,10.08,-3.541,6.402,4.207,-1.098
21.45,0.275,9.716,-4.204,0.915,3.841,-1.524
21.5,0.194,9.409,-3.409,-3.963,3.232,-3.293
21.55,0.366,9.924,-3.51,-4.756,2.012,-3.902
21.6,-0.182,9.725,-3.069,-2.256,4.024,-3.171
21.65,0.455,9.907,-3.115,-1.707,1.707,-1.585
21.7,-0.388,10.221,-3.888,2.622,4.451,-2.256
21.75,0.766,10.108,-3.701,1.098,3.354,-2.317
21.8,0.534,9.606,-3.45,0.854,2.622,-2.073
21.85,0.247,9.924,-3.045,-1.829,3.354,-2.317
21.9,0.256,9.878,-2.921,-0.732,3.537,-3.659
21.95,0.041,9.819,-3.17,1.159,2.439,-2.927
22.0,0.144,9.893,-3.639,2.134,1.28,-2.439
22.05,0.496,9.922,-3.543,0.488,4.146,-1.768
22.1,0.122,9.878,-3.476,-2.073,2.561,-2.683
22.15,0.273,10.314,-3.512,-10.244,2.5,-0.671
22.2,0.163,10.295,-3.938,-13.537,24.024,-3.902
22.25,0.56,9.67,-3.433,-10.976,23.963,-5.244
22.3,-0.182,10.314,-3.467,-10.854,19.634,-4.024
22.35,0.527,10.18,-3.304,-10.793,20.427,-7.5
22.4,0.136,10.618,-2.796,-22.622,21.341,-6.463
22.45,0.105,9.594,-3.158,-26.463,18.78,-9.939
22.5,-0.098,10.827,-2.861,-25.244,19.756,-6.585
22.55,0.115,10.424,-2.404,-22.012,19.939,-7.195
22.6,0.278,10.396,-2.37,-23.049,19.512,-7.622
22.65,0.215,9.941,-2.1,-22.5,20.122,-5.427
22.7,0.127,10.111,-1.417,-20.122,17.073,-6.646
22.75,-0.127,10.068,-2.069,-18.171,19.512,-6.402
22.8,-0.215,9.802,-1.429,-14.939,21.89,-5.671
22.85,0.587,10.511,-0.929,-12.317,19.024,-9.939
22.9,-0.242,9.907,-0.637,0.61,7.927,-9.024
22.95,-0.891,9.646,-1.365,2.805,-1.22,-8.171
23.0,-0.448,10.221,-1.008,2.683,2.134,1.037
23.05,0.11,10.101,-1.477,1.22,5.793,3.232
23.1,0.177,10.228,-1.262,4.939,1.585,-2.195
23.15,-0.057,10.022,-1.616,4.024,3.11,-5.366
23.2,-0.644,9.462,-2.016,2.622,1.585,-3.11
23.25,-1.015,9.869,-2.136,-10.122,10.244,-3.11
23.3,-0.527,10.542,-1.537,-11.89,15.366,1.159
23.35,-0.146,10.178,-1.188,-16.463,11.341,-1.159
23.4,0.031,9.527,-0.831,-11.524,9.939,-3.537
23.45,0.065,9.297,-0.5,-13.171,14.024,-5.061
23.5,-0.766,10.159,-0.493,-8.72,7.866,-5.183
23.55,-0.232,10.077,-1.025,-4.329,9.085,-3.78
23.6,-0.725,10.834,-0.318,-5.061,9.268,0.732
23.65,-0.735,10.08,-0.491,-1.768,8.902,4.146
23.7,0.603,10.563,-1.293,-3.598,7.988,0.183
23.75,-0.124,9.098,-1.132,-3.171,8.476,-2.805
23.8,-0.275,10.594,-0.654,-12.622,4.268,-4.756
23.85,0.089,9.938,-0.881,-8.415,7.073,-5.671
23.9,-0.429,10.64,-0.735,-11.524,10.488,-5.183
23.95,-0.211,9.613,0.029,-8.293,4.512,-6.768
24.0,-0.232,9.924,0.105,-1.463,2.805,-5.183
24.05,-0.405,10.101,-0.029,2.622,1.707,-15.427
24.1,-0.52,9.541,-0.57,6.28,0.549,1.89
24.15,-0.304,9.766,0.139,9.329,0.671,1.646
24.2,0.357,9.534,-0.596,8.415,2.256,0.854
24.25,0.364,10.108,-0.886,4.207,2.561,-1.341
24.3,-0.16,10.326,-0.754,0.61,0.061,-2.5
24.35,0.318,10.561,-0.158,1.037,0.549,-4.573
24.4,-0.397,9.78,-0.309,6.89,0.915,-1.037
24.45,-0.055,10.161,-0.369,8.293,2.927,1.463
24.5,-0.239,9.943,-0.857,5.976,2.134,-0.305
24.55,0.381,9.728,-1.176,4.329,2.439,-2.988
24.6,0.129,10.388,-0.63,2.866,2.378,-2.988
24.65,-0.323,10.025,-0.704,3.171,-1.341,-0.366
24.7,0.017,10.539,-0.615,5.366,1.098,1.098
24.75,0.074,9.527,-0.613,7.805,-0.61,3.11
24.8,0.199,10.305,-0.984,8.78,0.427,-1.341
24.85,0.062,10.455,-1.429,6.28,2.439,-0.488
24.9,0.225,10.501,-1.448,-0.732,1.28,-2.622
24.95,0.591,10.041,-1.317,-1.646,1.28,-2.744
25.0,-0.364,9.84,-1.061,-0.793,1.829,-2.622
25.05,0.469,10.59,-0.563,4.512,2.073,-9.39
25.1,0.998,10.429,-1.259,10.976,0.793,-10.183
25.15,-0.345,10.494,-1.635,7.561,2.134,-11.22
25.2,0.232,10.065,-0.812,8.354,1.707,-11.22
25.25,-0.493,8.626,-1.367,7.378,3.11,-10.915
25.3,0.012,11.021,-1.767,-1.098,4.573,-7.378
25.35,0.409,9.965,-1.118,1.646,0.976,-14.024
25.4,-0.56,10.439,-1.753,2.439,3.78,-12.866
25.45,-0.101,10.072,-1.47,2.866,4.573,-14.512
25.5,-0.692,9.38,-1.664,2.561,5.183,-12.073
25.55,-1.156,9.922,-1.202,7.927,1.098,-9.695
25.6,-0.548,10.295,-1.396,8.476,1.463,-10.549
25.65,-0.34,10.123,-2.047,6.768,5.793,-12.683
25.7,-1.353,10.034,-2.33,-0.976,3.598,-4.695
25.75,-1.269,10.312,-1.875,-8.232,2.5,-5.915
25.8,-0.857,10.173,-1.142,-4.146,2.622,-4.146
25.85,-1.068,9.862,-1.281,3.354,2.256,-2.805
25.9,-1.314,10.015,-1.776,0.305,2.927,0.061
25.95,-0.974,10.12,-1.504,15.488,1.951,0.671
26.0,-0.464,10.046,-1.657,2.683,3.293,-2.195
26.05,-0.86,9.867,-1.721,-0.305,2.439,-2.744
26.1,-0.917,10.013,-1.681,-2.012,2.195,-3.171
26.15,-0.783,9.895,-1.681,-1.402,2.439,-3.659
26.2,-1.152,9.859,-1.525,-0.488,2.805,-1.524
26.25,-0.903,10.005,-1.391,2.073,2.317,-1.159
26.3,-0.694,9.989,-1.781,2.195,3.293,-2.5
26.35,-0.867,10.106,-1.982,-1.22,2.439,-1.646
26.4,-0.543,9.867,-1.415,-1.037,2.439,-3.232
26.45,-0.591,9.926,-1.257,-0.061,2.805,-3.72
26.5,-1.039,10.07,-1.587,-0.549,2.439,-2.134
26.55,-0.953,9.859,-1.477,-0.549,2.439,-1.159
26.6,-0.716,10.183,-1.484,2.134,2.683,-2.317
26.65,-1.374,9.591,-1.441,6.768,3.171,-1.585
26.7,-0.783,10.068,-1.93,15.305,3.049,-0.61
26.75,-0.467,10.084,-1.279,-2.744,4.024,-3.537
26.8,0.089,9.742,-1.085,-0.427,3.171,-5.549
26.85,-1.674,9.914,-1.573,-2.683,-2.805,-2.622
26.9,-0.414,9.567,-0.785,-3.171,7.317,-3.049
26.95,-1.099,9.89,-1.001,2.256,3.232,-2.5
27.0,-1.362,10.985,-1.935,-14.573,2.195,-0.488
27.05,-0.876,10.068,-1.695,0.549,2.744,0.122
27.1,-1.068,9.969,-1.24,-2.195,1.89,-1.402
27.15,-0.625,10.381,-1.226,-2.195,1.098,-15.549
27.2,-1.12,10.216,-1.774,1.463,-4.024,4.146
27.25,-0.996,10.096,-1.968,2.805,-4.695,7.988
27.3,-0.675,10.032,-1.856,-5.183,-3.537,10.122
27.35,-0.948,9.567,-1.398,-3.841,-4.817,5.427
27.4,-0.223,10.065,-1.307,-7.622,-6.341,3.963
27.45,-0.12,10.283,-1.207,-3.11,-0.122,2.561
27.5,-0.91,9.874,-1.745,-8.171,-3.049,4.146
27.55,-0.323,9.852,-1.176,-9.573,-2.866,1.829
27.6,-0.232,10.613,-1.161,-10.427,-1.28,1.585
27.65,-0.644,10.405,-0.857,-8.232,-5.366,6.463
27.7,0.12,9.989,-0.788,-1.646,3.11,5.915
27.75,-0.022,10.326,-0.73,5.915,3.049,-1.159
27.8,0.01,10.561,-1.666,4.146,1.524,1.159
27.85,-0.211,9.807,-1.609,-4.085,0.366,-2.622
27.9,-0.278,10.518,-1.92,-9.756,1.28,-5.976
27.95,-1.032,10.649,-1.197,-13.232,-7.256,0.793
28.0,-0.977,9.924,-0.948,-11.28,-16.829,5.366
28.05,0.069,10.324,-0.105,0.854,-29.756,8.841
28.1,0.424,9.682,-0.122,5.549,-34.085,5.427
28.15,0.113,10.396,-1.563,5.244,-37.988,7.805
28.2,-0.417,10.058,-0.816,2.683,-36.402,5.976
28.25,0.522,10.424,-0.991,7.805,-36.89,4.146
28.3,-0.323,10.101,-0.618,8.232,-33.72,10.366
28.35,0.089,10.321,-0.448,8.902,-34.695,4.817
28.4,0.29,11.028,-1.018,11.463,-33.293,5.366
28.45,1.92,9.689,-1.528,16.707,-34.573,6.159
28.5,0.309,9.819,-2.684,19.573,-32.5,7.317
28.55,1.348,9.989,-1.41,24.024,-20.427,15.427
28.6,1.159,10.264,-2.227,17.5,-46.524,15.427
28.65,1.125,9.888,-2.071,0.183,-28.78,2.012
28.7,1.085,9.74,-2.88,19.634,-12.927,-1.524
28.75,1.305,9.756,-3.297,11.707,-3.11,-5.854
28.8,0.718,10.664,-3.852,-14.024,0.854,-4.817
28.85,0.658,10.412,-2.495,-25.549,4.939,-1.951
28.9,0.725,9.737,-1.52,-19.268,3.963,-1.89
28.95,1.75,10.209,-1.049,-5.366,2.744,-3.232
29.0,1.044,9.845,-1.779,6.402,0.793,-3.902
29.05,0.62,9.907,-2.186,4.146,-1.098,-3.902
29.1,0.95,10.508,-3.211,-5.915,15.427,-7.561
29.15,0.646,10.032,-2.437,-11.524,2.256,-3.659
29.2,1.19,9.869,-1.458,-10.244,0.488,-3.232
29.25,0.345,10.137,-0.941,-5.366,2.5,-1.524
29.3,0.939,9.845,-1.815,-0.793,-1.402,-4.268
29.35,0.546,10.075,-1.803,0.0,1.829,-3.171
29.4,0.594,9.797,-1.726,-3.232,1.89,-3.902
29.45,0.759,10.166,-1.824,-5.61,-0.976,-3.476
29.5,0.766,9.89,-1.338,-4.146,2.378,-2.256
29.55,0.895,9.914,-1.439,-3.171,0.854,-2.5
29.6,1.341,9.96,-1.635,-0.183,-0.488,-4.268
29.65,0.608,10.108,-1.635,-3.049,1.098,-5.793
29.7,0.687,10.245,-1.973,-1.707,2.561,-2.866
29.75,0.457,10.139,-1.417,-2.134,2.012,-1.646
29.8,0.702,10.295,-1.978,-7.256,1.22,-2.073
29.85,0.634,10.412,-1.772,-12.256,-1.646,-4.573
29.9,1.049,9.874,-1.159,-10.183,1.402,-4.085
29.95,0.302,8.935,-1.161,-0.915,5.854,-2.256
30.0,0.9,9.471,-1.611,9.939,16.463,0.61
30.05,0.95,10.372,-1.14,10.488,16.951,-0.976
30.1,1.185,9.44,-1.511,12.805,17.378,-4.024
30.15,0.644,10.123,-1.848,1.463,18.476,-9.695
30.2,-0.024,10.168,-1.389,-2.317,18.537,-7.744
30.25,0.017,10.271,-1.803,-7.805,15.305,-8.171
30.3,0.273,10.015,-0.737,-3.293,13.476,-12.012
30.35,0.366,9.646,-1.19,-1.098,10.122,-15.549
30.4,0.062,9.941,-1.65,0.732,8.171,-15.061
30.45,-0.086,10.719,-1.494,-1.951,0.061,-12.378
30.5,-0.584,10.084,-1.223,-0.732,3.049,-9.512
30.55,-0.132,9.79,-0.86,1.098,1.646,-7.012
30.6,-0.845,10.175,-1.068,7.073,-4.329,-2.134
30.65,0.424,11.253,-0.201,17.683,-4.451,-14.085
30.7,-0.333,12.711,-1.841,7.866,1.22,-6.646
30.75,-0.781,9.792,-1.745,-7.622,3.537,-2.805
30.8,0.795,10.18,-0.84,1.585,3.293,-4.085
30.85,-0.069,9.91,-1.415,1.768,2.927,-2.439
30.9,-0.591,9.979,-2.186,1.098,1.89,-14.756
30.95,0.591,10.283,-1.712,-1.768,4.329,-2.805
31.0,-0.575,10.223,-2.076,-6.341,2.256,-2.073
31.05,-0.603,10.202,-1.408,-16.341,1.22,0.183
31.1,0.163,9.972,-0.773,-9.817,0.915,-5.305
31.15,-0.254,10.257,-1.614,-3.415,3.598,-5.244
31.2,-0.443,10.302,-1.707,-8.415,2.561,-0.305
31.25,0.134,10.032,-1.53,-9.39,-15.366,-1.037
31.3,-0.091,10.278,-1.037,-7.988,1.585,-3.78
31.35,-0.156,10.314,-1.111,-10.061,3.659,-4.634
31.4,-0.007,10.264,-0.455,-3.963,0.976,-1.951
31.45,-0.043,10.331,-1.341,-6.098,2.012,-4.451
31.5,-0.443,10.245,-1.496,-9.695,1.159,-3.049
31.55,-0.448,10.721,-0.496,-12.805,1.89,-0.732
31.6,0.227,9.685,-0.069,-3.171,2.866,-3.415
31.65,-0.97,10.252,-1.101,-0.671,-0.854,0.854
31.7,0.754,9.938,-0.273,-4.634,1.646,10.793
31.75,0.376,9.912,-0.424,-1.037,1.037,9.207
31.8,-0.438,10.264,-0.328,-1.707,5.0,0.244
31.85,0.213,10.226,-0.986,-1.341,5.0,19.878
31.9,0.239,9.404,-0.515,-2.317,7.134,25.854
31.95,-0.105,9.56,-0.551,-0.793,4.451,28.78
32.0,0.57,9.538,-1.077,-4.634,3.841,27.256
32.05,0.912,10.005,-0.467,-11.22,1.524,32.744
32.1,0.476,9.177,-0.187,-7.988,-1.341,34.695
32.15,1.065,11.066,-0.297,-0.549,-6.89,43.049
32.2,1.633,8.842,-0.673,15.305,-8.476,31.463
32.25,0.991,9.756,-0.153,-3.537,-8.78,51.28
32.3,3.215,8.844,-0.838,-6.098,-5.793,49.451
32.35,2.935,10.149,-0.244,-8.78,-7.195,49.756
32.4,4.061,8.444,-0.045,15.122,-8.293,44.024
32.45,4.424,8.751,-0.218,0.793,-8.476,37.805
32.5,6.936,8.535,-0.881,7.866,-0.549,-5.549
32.55,4.891,9.938,-0.821,-6.098,6.89,-4.695
32.6,3.845,8.622,0.215,-5.61,0.549,-3.78
32.65,3.716,9.234,-0.237,1.098,2.622,-1.463
32.7,4.432,9.629,-0.426,-1.585,3.476,-1.341
32.75,4.135,9.584,-0.326,-2.5,2.378,-3.11
32.8,3.723,9.172,-0.52,0.122,4.695,-1.768
32.85,4.269,8.705,-0.618,0.915,-0.854,-2.744
32.9,4.207,9.309,-1.008,-0.854,5.183,-4.085
32.95,4.18,9.4,-0.074,0.183,1.768,-1.524
33.0,4.161,9.797,-0.622,14.085,2.134,-4.268
33.05,3.977,8.894,-0.503,-0.549,2.195,-2.317
33.1,4.946,9.622,-0.077,0.244,3.171,-2.5
33.15,4.372,9.641,-0.68,-0.061,2.988,-1.829
33.2,4.199,9.414,-0.354,0.366,2.866,-1.829
33.25,4.187,8.887,-0.804,15.366,2.622,-2.256
33.3,4.116,9.189,-0.18,1.098,2.988,-1.585
33.35,4.123,9.627,-0.359,3.72,1.89,-0.488
33.4,4.144,9.249,-0.833,-0.427,1.951,-2.988
33.45,4.034,9.294,-0.615,-3.78,3.841,-2.866
33.5,4.365,9.0,0.024,1.829,2.256,-2.622
33.55,4.334,9.158,-0.486,2.073,1.402,-1.524
33.6,4.415,8.909,-0.436,-0.061,3.049,-3.11
33.65,4.228,9.153,-0.457,-0.305,2.317,-2.439
33.7,4.039,9.234,-0.455,0.854,1.951,-2.5
33.75,4.314,9.057,-0.424,-0.793,3.049,-2.195
33.8,4.65,9.002,-0.311,-0.244,2.439,-2.5
33.85,4.417,9.158,-0.546,-0.488,2.439,-2.317
33.9,4.302,9.232,-0.383,-1.037,2.866,-2.561
33.95,4.159,9.222,-0.431,0.488,1.951,-2.073
34.0,4.745,9.175,-0.575,0.183,2.439,-2.988
34.05,4.398,9.129,-0.563,-1.463,3.232,-2.195
34.1,4.164,9.124,-0.23,-0.366,2.5,-2.5
34.15,4.329,9.16,-0.481,1.768,1.951,-1.89
34.2,4.554,9.182,-0.749,-0.488,2.988,-2.866
34.25,4.305,9.177,-0.414,-1.28,3.476,-2.5
34.3,4.233,9.091,-0.431,1.28,2.073,-1.646
34.35,4.59,9.179,-0.508,15.549,2.561,-2.439
34.4,4.334,9.103,-0.405,-1.159,3.049,-2.622
34.45,4.221,9.108,-0.323,-0.488,2.5,-2.317
34.5,4.348,9.151,-0.546,0.915,3.232,-1.829
34.55,4.156,9.194,-0.491,-1.585,1.829,-2.744
34.6,4.583,8.988,-0.144,2.195,1.037,-2.927
34.65,4.065,8.66,-0.742,-0.366,2.134,-3.11
34.7,3.826,9.577,-0.041,-0.549,4.329,-2.439
34.75,3.831,8.607,-1.532,0.549,3.415,3.902
34.8,5.164,9.646,0.06,0.305,3.293,1.646
34.85,4.702,8.564,-0.687,1.585,2.683,-1.585
34.9,4.235,7.973,-0.381,-2.378,1.159,-2.134
34.95,4.171,8.353,-0.666,-0.549,4.512,6.037
35.0,3.879,9.148,-0.637,-7.134,-1.22,8.659
35.05,3.879,9.148,-0.637,-7.134,-1.22,8.659
35.1,4.041,10.233,-0.467,2.439,-1.037,-1.22
35.15,5.567,10.089,-0.306,-0.183,4.268,-3.171
35.2,4.441,8.049,-0.663,-3.78,4.024,1.159
35.25,4.475,7.796,0.067,2.5,0.549,7.5
35.3,4.085,9.055,-1.056,-15.549,-2.439,9.512
35.35,5.325,9.129,0.151,-14.085,-2.439,-1.402
35.4,4.223,9.05,-1.446,-2.378,4.573,-1.402
35.45,4.312,9.409,-0.414,-4.878,3.476,-2.805
35.5,4.798,8.662,-0.261,0.854,2.622,-2.5
35.55,4.666,9.062,-0.814,0.671,1.341,-1.646
35.6,4.97,8.95,-0.342,-1.89,3.963,-3.78
35.65,4.472,8.923,-0.283,1.037,1.89,-2.134
35.7,5.045,8.933,-0.754,0.0,2.439,-2.256
35.75,4.817,9.285,-0.543,-0.793,3.11,-2.561
35.8,4.726,8.969,-0.129,6.159,-2.927,-2.683
35.85,5.322,9.002,-0.038,9.39,-5.122,-8.72
35.9,4.82,9.213,-1.037,1.463,-1.707,-3.598
35.95,5.061,9.287,-0.383,-1.037,-2.622,-7.439
36.0,4.405,9.625,-0.91,2.622,-3.963,-13.415
36.05,4.049,9.433,-0.838,-1.22,-3.902,-10.0
36.1,4.563,9.503,-0.709,2.744,-5.671,-12.439
36.15,3.9,8.842,-0.924,2.256,-7.927,-6.829
36.2,4.204,10.046,-0.927,4.878,-10.366,-6.707
36.25,3.895,9.787,-0.903,0.854,-7.439,-6.037
36.3,5.164,9.11,-0.73,6.098,-9.268,-7.622
36.35,4.317,10.068,-1.322,5.427,-6.829,-4.329
36.4,4.662,8.789,-1.494,-1.768,-5.549,-5.915
36.45,4.274,8.916,-1.118,1.22,-7.5,-6.341
36.5,4.199,10.041,-1.089,0.488,-3.354,-8.049
36.55,3.742,9.11,-0.883,2.195,-15.366,-1.341
36.6,4.324,9.5,-1.549,3.537,0.854,-1.646
36.65,4.566,9.261,-1.686,-1.707,7.988,-6.159
36.7,4.484,9.572,-0.646,-1.829,13.659,-19.878
36.75,4.52,9.651,-1.183,4.085,18.902,-32.683
36.8,4.468,9.311,-1.657,-2.866,0.0,-41.037
36.85,4.017,9.519,-1.286,2.683,11.646,-39.634
36.9,3.938,9.828,-1.317,2.256,13.354,-41.707
36.95,3.488,9.622,-1.015,15.122,14.634,-37.378
37.0,2.157,9.491,-1.221,3.476,9.329,-43.049
37.05,2.595,10.501,-1.571,-5.61,14.39,-41.524
37.1,1.671,10.341,-0.819,-5.671,8.354,-38.537
37.15,1.197,10.214,-0.62,-15.061,3.841,-36.037
37.2,0.769,10.707,-1.532,-3.78,3.354,-34.817
37.25,0.543,9.515,-0.302,1.037,-0.305,-26.768
37.3,1.106,9.993,-1.441,-3.171,2.195,-28.415
37.35,0.51,9.85,-0.922,-1.707,2.988,-23.537
37.4,0.141,10.029,-0.615,-0.122,0.671,-16.28
37.45,0.251,9.871,-0.907,0.549,3.049,-3.171
37.5,0.227,9.68,-0.637,5.183,2.134,-3.537
37.55,0.486,10.022,-1.156,5.976,5.122,-1.463
37.6,1.492,10.015,-0.728,2.683,2.622,-0.488
37.65,0.273,10.321,-1.587,-1.768,5.793,-3.232
37.7,1.369,10.475,-2.33,-15.366,5.793,-5.0
37.75,0.144,11.028,-1.006,0.915,2.317,-2.988
37.8,-0.227,10.733,-1.724,-2.561,4.024,-3.598
37.85,-0.555,9.172,-2.016,-0.183,-14.451,-3.78
37.9,0.168,10.341,0.031,-2.866,4.268,-3.049
37.95,0.63,10.958,-1.599,1.098,2.195,-1.098
38.0,0.287,11.473,-0.836,-15.305,1.707,-3.598
38.05,-0.17,9.443,-0.448,14.39,2.927,-2.561
38.1,0.852,10.736,-0.723,-14.939,2.866,-2.012
38.15,-0.026,10.151,-0.788,0.793,3.841,-1.524
38.2,0.321,10.214,-1.149,-0.671,1.951,-3.171
38.25,-0.132,10.209,-1.451,-15.183,2.134,-1.037
38.3,0.493,9.725,-0.737,5.549,1.098,-2.195
38.35,0.417,9.859,-1.228,4.024,2.927,0.244
38.4,0.833,9.989,-0.792,-1.463,2.195,-3.476
38.45,0.871,9.946,-0.757,-0.061,0.671,-5.366
38.5,-0.038,9.907,-0.792,-0.61,3.598,-6.463
38.55,0.553,9.778,-0.867,-1.341,1.341,-4.085
38.6,0.297,9.998,-0.797,1.646,2.195,-1.585
38.65,0.069,10.027,-1.36,1.707,2.927,-3.232
38.7,0.263,9.957,-1.367,-4.085,2.927,-1.22
38.75,0.103,10.405,-1.022,0.915,3.049,-4.756
38.8,-0.383,10.013,-1.547,0.671,3.841,-1.524
38.85,0.421,9.931,-1.628,-0.061,0.854,-2.683
38.9,-0.302,9.574,-1.671,3.963,1.768,-1.098
38.95,0.596,9.871,-1.726,-1.524,2.317,-4.329
39.0,0.68,10.487,-1.247,-6.89,2.988,-10.732
39.05,0.28,10.58,-1.118,-2.5,7.317,-23.963
39.1,1.058,10.432,-0.651,-3.598,9.573,-24.939
39.15,0.424,9.895,-1.003,-4.939,-2.256,-30.976
39.2,-0.699,10.748,-0.838,-1.402,14.817,-8.476
39.25,-0.385,9.888,-1.001,1.159,1.402,-5.366
39.3,-0.563,10.851,-0.611,3.354,14.451,-4.939
39.35,-1.59,9.414,-0.417,10.976,-4.451,-2.195
39.4,-0.543,11.353,-0.716,5.122,-3.049,-1.341
39.45,-0.898,10.029,-0.893,12.256,-1.768,-8.049
39.5,-0.381,10.554,-0.498,16.951,2.744,-1.707
39.55,0.158,10.123,-1.168,21.646,15.183,2.195
39.6,-0.888,10.178,-2.435,12.622,-0.366,6.89
39.65,-0.644,10.178,-2.227,2.866,-2.317,7.988
39.7,-0.611,10.391,-2.14,2.073,-15.366,15.671
39.75,-0.204,9.862,-1.638,2.5,3.049,14.512
39.8,0.294,9.522,-1.585,1.768,5.183,3.293
39.85,0.464,11.423,-1.714,-5.183,5.915,2.439
39.9,0.905,10.003,-1.549,-4.329,2.256,-7.439
39.95,0.723,9.9,-1.463,-1.341,9.329,-8.171
40.0,0.139,9.972,-1.334,-2.439,16.951,-5.244
40.05,0.345,9.874,-1.513,-6.768,20.183,-4.39
40.1,0.062,10.884,-1.913,-8.049,18.78,-2.195
40.15,-0.074,9.622,-1.518,-4.329,19.207,-0.915
40.2,-0.73,9.828,-1.231,-0.427,24.573,-15.366
40.25,-0.043,9.934,-1.18,-14.878,19.878,2.683
40.3,0.271,9.199,-0.953,-12.683,17.988,2.073
40.35,-0.12,9.699,-0.795,-11.524,17.317,3.72
40.4,-0.11,9.687,-0.723,-8.537,22.622,4.939
40.45,0.007,9.845,-0.223,-5.549,19.634,9.573
40.5,0.86,10.326,-0.275,1.28,30.488,5.244
40.55,0.553,9.974,-0.792,6.341,10.549,8.78
40.6,0.237,9.716,-1.204,18.354,4.268,9.817
40.65,0.984,10.357,-1.918,15.976,3.171,2.256
40.7,0.824,10.245,-2.392,-3.171,2.927,-2.683
40.75,1.092,10.441,-1.903,-10.183,2.805,-6.768
40.8,0.656,9.883,-1.068,-10.366,4.085,-7.317
40.85,-0.127,10.068,-0.599,-2.439,2.439,-1.585
40.9,0.491,9.699,-0.601,3.354,2.622,0.061
40.95,0.486,10.065,-0.862,8.415,2.378,0.244
41.0,0.639,10.367,-1.525,1.707,2.744,-1.951
41.05,0.718,10.266,-1.47,-1.159,2.805,-3.537
41.1,0.673,9.809,-0.85,-5.549,2.073,-4.085
41.15,0.498,9.864,-0.742,-3.11,2.317,-3.841
41.2,0.527,9.917,-0.675,1.463,2.378,-1.951
41.25,0.584,10.391,-0.965,3.354,2.744,-1.098
41.3,0.73,10.264,-1.243,1.037,2.5,-2.988
41.35,0.711,10.223,-1.001,-2.073,2.561,-3.537
41.4,0.613,10.451,-1.046,-2.744,2.744,-3.354
41.45,0.328,10.08,-0.85,-1.524,2.683,-2.805
41.5,0.702,10.075,-0.649,2.134,2.744,-1.341
41.55,0.685,9.673,-0.56,5.671,4.634,-2.378
41.6,0.644,10.029,-1.662,-1.89,1.951,-1.585
41.65,0.019,9.972,-0.855,-8.841,0.671,-3.537
41.7,1.097,10.283,-0.838,-6.159,2.012,-4.024
41.75,-0.139,10.247,-0.907,-1.159,1.646,-2.988
41.8,0.309,10.499,-0.333,3.78,-2.927,-11.037
41.85,0.259,9.917,-0.69,12.683,-2.195,2.744
41.9,0.462,9.548,-0.831,12.805,2.683,5.671
41.95,0.012,10.472,-1.463,12.683,-1.524,3.171
42.0,0.881,10.12,-0.907,10.0,1.768,0.61
42.05,0.989,10.544,-1.575,7.012,-0.793,1.463
42.1,0.733,9.716,-1.48,4.939,2.805,14.817
42.15,0.831,10.551,-1.659,5.671,0.549,-1.463
42.2,0.505,9.582,-1.604,7.073,15.549,-0.732
42.25,0.539,9.481,-1.408,8.72,2.378,1.098
42.3,0.797,10.065,-2.119,16.89,3.171,4.024
42.35,0.144,10.484,-1.492,17.683,1.646,5.305
42.4,0.95,10.424,-2.703,14.146,4.207,5.061
42.45,0.658,10.01,-3.112,4.329,2.378,2.439
42.5,1.808,10.046,-2.866,-3.476,1.951,-4.695
42.55,0.886,10.41,-2.567,-10.0,3.11,-8.598
42.6,1.015,10.405,-1.738,-10.0,2.866,-5.732
42.65,0.876,9.953,-1.317,3.415,3.902,-2.256
42.7,1.18,10.192,-2.095,6.829,10.488,0.366
42.75,1.087,10.127,-2.746,3.232,10.305,-1.768
42.8,1.29,9.914,-2.265,1.646,8.902,-2.927
42.85,0.915,10.321,-2.253,-2.439,7.134,-3.537
42.9,1.176,10.202,-2.162,-4.756,9.207,-6.341
42.95,1.097,10.149,-2.351,-9.329,8.841,-7.439
43.0,0.907,9.618,-1.844,-10.61,9.39,-8.293
43.05,0.725,10.597,-1.805,-12.622,9.878,-6.585
43.1,1.065,9.998,-1.889,-12.683,11.098,-7.439
43.15,0.749,9.986,-1.738,-14.329,11.22,-5.915
43.2,0.589,9.962,-2.078,-15.244,9.512,-6.646
43.25,0.68,10.171,-1.671,-31.159,9.573,-5.976
43.3,1.068,9.536,-0.977,-11.951,9.085,-5.305
43.35,0.656,10.151,-1.077,-7.622,3.415,-4.756
43.4,0.326,9.936,-0.852,-2.866,3.598,-2.683
43.45,0.199,9.996,-0.809,1.951,3.963,0.793
43.5,0.694,9.883,-1.25,0.976,2.805,15.549
43.55,1.144,10.034,-1.334,0.183,5.366,-3.415
43.6,0.68,9.661,-1.269,-2.927,2.256,-4.512
43.65,0.338,9.416,-0.97,3.841,-1.524,-0.488
43.7,0.476,9.771,-0.625,27.012,-5.732,-1.037
43.75,0.843,9.979,-1.791,37.927,-8.049,-9.695
43.8,0.843,10.386,-2.753,34.756,-11.402,-10.732
43.85,0.498,9.713,-2.301,31.829,-14.756,-10.488
43.9,0.129,9.953,-2.935,25.732,-15.366,-6.463
43.95,0.742,9.0,-2.48,19.573,-12.561,-6.037
44.0,0.929,10.135,-2.009,16.646,-6.524,-10.122
44.05,-0.318,10.108,-3.603,11.707,-12.439,-4.695
44.1,-0.52,10.391,-3.639,6.159,-0.183,1.951
44.15,0.79,9.282,-2.794,0.305,-6.159,-8.232
44.2,-0.297,10.585,-3.543,18.659,-7.012,-0.122
44.25,0.278,9.479,-3.189,23.598,-8.11,-0.305
44.3,0.508,9.594,-3.503,24.39,-6.098,-0.366
44.35,0.072,11.495,-4.523,9.634,-9.268,-2.805
44.4,1.599,9.936,-4.286,-3.537,2.134,-33.902
44.45,-0.599,9.855,-3.704,-17.012,4.451,-8.476
44.5,-0.919,10.245,-2.859,-11.098,0.793,-1.829
44.55,-0.302,9.574,-3.062,6.402,1.098,-1.768
44.6,-0.141,9.869,-3.385,13.415,2.195,-1.463
44.65,0.242,10.202,-3.589,14.817,3.598,-1.524
44.7,-0.388,9.977,-3.697,21.524,-14.878,3.72
44.75,0.065,9.914,-4.113,26.402,2.317,3.72
44.8,0.089,9.783,-4.848,17.317,2.927,2.866
44.85,0.242,10.058,-4.221,11.646,2.256,3.78
44.9,0.529,9.562,-4.501,11.402,3.049,-2.012
44.95,0.273,9.562,-4.326,15.427,1.037,-0.793
45.0,0.223,9.385,-4.887,14.207,0.305,0.61
45.05,0.244,9.517,-4.817,11.28,1.707,0.549
45.1,0.062,9.704,-4.942,8.11,2.683,1.22
45.15,0.029,9.074,-4.798,11.707,2.561,4.756
45.2,0.589,9.385,-5.071,11.646,1.585,-0.854
45.25,0.369,9.783,-5.626,6.768,1.402,-1.585
45.3,0.124,9.524,-5.794,0.183,2.256,-0.61
45.35,0.551,9.366,-5.236,-3.841,2.805,-3.902
45.4,0.019,9.287,-4.944,-0.183,2.988,-2.744
45.45,0.18,9.426,-5.066,2.805,2.622,-0.915
45.5,0.56,9.625,-5.272,0.488,2.988,-3.049
45.55,0.412,9.392,-5.294,-1.951,1.89,-2.012
45.6,0.373,9.376,-5.013,0.183,2.561,-3.11
45.65,0.163,9.481,-5.193,1.402,2.5,-2.256
45.7,0.232,9.476,-5.066,0.976,3.11,-1.524
45.75,0.359,9.404,-5.248,-1.829,2.561,-3.232
45.8,0.072,9.483,-5.478,-4.512,2.378,-2.256
45.85,0.62,9.946,-5.741,-14.634,1.524,-4.634
45.9,0.263,9.572,-4.93,-23.049,0.732,-5.793
45.95,0.093,9.416,-4.779,-25.305,0.915,-6.22
46.0,0.388,9.562,-4.63,-27.988,1.829,-6.463
46.05,0.065,9.361,-4.073,-25.488,0.366,-5.061
46.1,0.426,9.409,-3.768,-22.988,1.098,-6.159
46.15,-0.105,9.515,-3.831,-18.841,0.671,-4.756
46.2,-0.105,9.515,-3.831,-18.841,0.671,-4.756
46.25,0.074,9.668,-3.615,-21.341,2.561,-6.341
46.3,0.218,10.108,-3.677,-21.646,1.585,-5.915
46.35,-0.089,9.948,-3.383,-23.659,0.488,-5.183
46.4,0.06,9.819,-2.433,-18.171,3.72,-5.671
46.45,-0.062,9.716,-2.219,-7.317,2.134,-3.232
46.5,0.103,9.718,-2.693,7.012,15.366,0.305
46.55,0.06,10.092,-3.687,9.756,2.927,-2.195
46.6,0.577,9.871,-3.462,-2.5,4.329,-2.134
46.65,-0.359,9.708,-3.084,-10.549,3.293,-6.585
46.7,-0.136,9.268,-2.871,-11.098,2.317,-2.866
46.75,0.608,10.096,-2.674,-13.598,2.256,-5.122
46.8,0.232,9.785,-2.761,-10.976,4.634,-4.024
46.85,-0.208,9.572,-2.339,-7.073,2.744,-2.988
46.9,-0.103,9.613,-2.904,-6.646,2.988,-5.244
46.95,-0.493,9.206,-2.205,-3.049,3.963,-2.378
47.0,0.833,8.672,-2.21,-4.695,2.988,-4.39
47.05,-0.797,9.857,-3.06,-3.293,2.988,-5.488
47.1,0.187,10.841,-3.129,-7.805,1.463,-2.012
47.15,0.237,10.257,-2.375,-9.451,-0.549,-2.073
47.2,0.608,9.364,-2.322,-9.085,2.5,-4.207
47.25,-0.967,9.658,-1.87,1.28,1.89,-3.232
47.3,0.132,9.886,-2.21,3.049,-3.659,0.854
47.35,-0.089,10.41,-2.646,-4.695,7.012,-6.585
47.4,-0.019,10.077,-2.363,-8.171,15.183,-3.171
47.45,-0.192,10.302,-2.085,-12.073,4.573,-2.805
47.5,-0.472,9.68,-1.401,-1.89,0.854,-4.085
47.55,-0.034,9.902,-1.614,7.134,4.146,0.183
47.6,-0.522,10.022,-2.361,4.39,2.744,-2.744
47.65,0.153,10.118,-2.157,-6.646,4.756,-3.841
47.7,-0.584,9.867,-1.599,-5.061,1.89,-2.683
47.75,-0.383,10.056,-1.844,3.72,2.561,-3.476
47.8,-0.034,10.084,-2.133,3.293,2.744,-1.585
47.85,-0.304,10.171,-2.126,-2.134,1.646,-1.768
47.9,0.201,10.317,-2.217,-2.866,2.683,-3.78
47.95,-0.338,10.111,-1.729,-0.244,2.683,-2.134
48.0,-0.057,10.41,-2.246,1.585,4.207,-3.11
48.05,0.364,9.838,-1.92,-0.732,2.866,-2.622
48.1,0.134,9.78,-1.956,-1.098,0.793,-2.439
48.15,0.072,10.034,-1.961,-0.793,1.829,-3.354
48.2,-0.057,10.034,-1.872,0.549,3.354,-2.378
48.25,-0.18,9.831,-2.052,1.159,2.927,-2.5
48.3,-0.12,10.558,-2.002,-0.244,2.866,-3.537
48.35,-0.517,10.168,-1.875,-0.671,1.159,-15.61
48.4,0.45,10.027,-2.394,-0.61,2.134,-3.293
48.45,-0.436,10.206,-1.867,1.646,4.329,-3.293
48.5,0.371,9.984,-2.612,1.585,1.524,-1.768
48.55,0.266,10.321,-2.385,-2.317,1.28,-1.28
48.6,0.067,10.621,-1.513,-2.744,2.439,-3.476
48.65,0.34,9.359,-0.919,0.976,2.866,-2.317
48.7,-1.025,10.211,-2.394,1.646,2.561,-2.378
48.75,0.278,9.72,-2.492,-1.341,2.256,-2.622
48.8,0.929,8.471,-1.949,2.561,3.598,-3.72
48.85,-1.176,10.07,-2.708,1.585,2.866,-2.561
48.9,0.333,9.239,-1.798,-2.134,2.5,-1.951
48.95,-1.006,10.022,-2.248,0.305,0.793,-2.805
49.0,0.089,9.218,-2.011,15.244,2.195,-1.707
49.05,-0.05,9.407,-2.184,-0.183,3.902,-3.232
49.1,-0.608,10.084,-2.586,-1.22,0.061,-2.561
49.15,0.594,9.912,-1.985,0.915,15.305,-1.89
49.2,-0.057,10.058,-2.497,1.89,4.329,-1.646
49.25,0.089,9.948,-2.428,1.951,1.159,-1.585
49.3,-0.201,9.84,-2.033,-3.72,1.646,-3.415
49.35,0.048,9.895,-1.772,-2.317,3.11,-3.11
49.4,-0.517,10.453,-1.736,2.378,4.146,-1.341
49.45,-0.192,10.374,-2.152,-0.61,0.305,-2.439
49.5,0.041,9.862,-1.99,-1.402,1.402,-2.683
49.55,-0.292,10.08,-1.829,0.122,2.134,-2.683
49.6,-0.318,10.381,-2.179,0.549,2.378,-2.622
49.65,-0.057,10.159,-1.901,-0.976,2.378,-1.646
49.7,-0.168,10.104,-1.841,0.183,2.439,-2.378
49.75,-0.283,10.041,-1.992,0.671,2.561,-2.744
49.8,0.151,9.862,-1.894,-0.488,1.951,-3.72
49.85,-0.271,10.479,-1.99,-1.341,2.439,-1.037
49.9,0.036,9.819,-2.112,1.707,0.305,-5.427
49.95,-0.673,10.223,-2.471,-1.768,2.012,-3.415
50.0,-0.378,10.118,-1.903,-1.159,3.171,-4.878
50.05,-0.127,10.092,-1.937,0.915,0.0,-2.866
50.1,-0.436,9.685,-1.99,1.768,4.451,-2.012
50.15,-0.132,10.494,-1.999,-1.463,3.72,-2.866
50.2,-0.045,9.855,-2.126,-1.037,2.805,-1.463
50.25,-0.414,10.036,-2.456,-2.988,3.049,-0.488
50.3,-0.462,9.378,-1.721,-5.854,2.256,-3.72
50.35,-0.397,10.218,-1.621,-4.268,3.11,-2.683
50.4,-0.591,9.95,-1.925,-5.427,3.293,-4.024
50.45,-0.192,10.154,-2.172,-5.549,3.293,-0.793
50.5,-0.192,10.159,-1.803,-5.976,1.463,-1.524
50.55,0.153,10.206,-1.614,-3.537,2.195,-3.415
50.6,-0.879,10.07,-1.832,-2.317,2.256,-2.073
50.65,0.005,10.348,-1.834,-2.805,3.415,0.976
50.7,-0.101,10.321,-1.602,-4.878,2.317,-3.78
50.75,-0.464,9.878,-1.35,-0.488,3.232,-1.341
50.8,-0.215,9.934,-1.398,2.195,1.951,-1.707
50.85,0.263,10.142,-1.803,0.854,3.11,-3.171
50.9,-0.539,10.072,-1.65,-1.524,2.256,-1.22
50.95,-0.079,9.998,-1.607,-0.061,2.622,-3.354
51.0,-0.266,10.025,-1.448,0.854,2.683,-1.951
51.05,-0.352,10.161,-1.832,0.183,2.622,-1.646
51.1,0.091,10.357,-1.638,-0.793,2.744,-2.439
51.15,-0.723,9.747,-1.504,1.524,2.5,0.732
51.2,0.34,10.218,-1.662,3.415,2.317,-2.805
51.25,-0.429,10.036,-1.748,-1.341,2.378,-2.256
51.3,-0.11,10.228,-1.59,-1.037,3.11,-1.524
51.35,0.048,9.718,-1.528,0.305,2.378,-3.963
51.4,-0.445,9.883,-1.525,0.488,2.195,-0.549
51.45,0.026,10.171,-1.544,-0.305,2.5,-3.415
51.5,-0.201,10.034,-1.496,-1.098,2.256,-6.22
51.55,0.012,9.993,-1.585,-0.244,3.659,-3.11
51.6,0.036,10.01,-1.482,0.488,2.744,-3.598
51.65,0.079,10.116,-1.592,0.183,2.5,-2.378
51.7,-0.438,9.874,-1.647,-0.183,2.866,-1.037
51.75,-0.283,10.06,-1.384,0.854,2.256,-1.89
51.8,-0.065,9.977,-1.64,0.671,2.561,-4.024
51.85,-0.115,9.821,-1.659,0.061,1.951,-2.073
51.9,-0.304,10.185,-1.575,-0.549,2.317,-2.195
51.95,-0.266,10.051,-1.547,0.427,2.378,-2.439
52.0,-0.12,9.972,-1.642,0.366,2.256,-2.439
52.05,-0.048,10.156,-1.709,-0.427,2.439,-2.5
52.1,-0.275,10.065,-1.633,-0.488,2.317,-2.378
52.15,-0.304,10.044,-1.573,0.915,2.622,-7.073
52.2,-0.409,9.96,-1.736,2.439,2.195,-12.927
52.25,-0.448,10.238,-1.803,-1.037,1.524,-11.829
52.3,-0.453,10.144,-1.618,-2.5,0.305,-8.476
52.35,-0.67,10.046,-1.393,-0.61,2.866,-5.61
52.4,-0.759,10.285,-1.705,0.0,2.927,-4.146
52.45,-0.907,10.324,-1.882,-5.244,2.256,1.22
52.5,-0.57,9.596,-1.532,-2.5,3.72,0.915
52.55,-0.577,10.041,-0.953,-15.244,4.085,0.549
52.6,-0.187,10.417,-1.528,2.073,5.122,1.707
52.65,-0.405,10.333,-1.678,0.793,4.573,15.305
52.7,-0.371,10.027,-1.674,-1.646,3.659,3.415
52.75,0.12,9.931,-1.073,-2.012,5.183,2.378
52.8,0.017,10.022,-1.544,-1.524,4.451,0.427
52.85,-0.117,10.396,-1.642,-6.829,4.024,4.39
52.9,0.512,10.393,-1.307,-4.024,3.171,-4.207
52.95,0.323,10.3,-1.506,-2.073,2.988,-1.585
53.0,-0.572,9.51,-1.252,0.244,3.049,15.549
53.05,0.01,10.063,-1.384,0.61,2.744,0.549
53.1,0.158,9.938,-1.401,2.073,2.195,-4.268
53.15,-0.206,10.058,-1.786,-0.61,2.622,-3.476
53.2,-0.151,10.247,-1.362,-0.915,2.256,-1.28
53.25,-0.024,9.821,-1.3,2.439,2.683,-2.195
53.3,-0.22,9.934,-1.755,0.122,2.927,-3.11
53.35,0.285,10.139,-1.81,-4.634,1.159,-7.927
53.4,0.005,10.403,-1.276,-5.488,1.28,-5.793
53.45,-0.618,9.677,-1.075,-1.646,4.878,4.39
53.5,-0.675,10.314,-1.207,3.415,0.671,12.317
53.55,-0.182,10.032,-1.41,4.512,1.463,11.89
53.6,0.615,10.35,-1.753,1.585,1.22,1.22
53.65,0.644,9.572,-1.618,-1.585,1.768,-1.341
53.7,0.366,10.348,-1.499,0.366,0.366,-1.829
53.75,-0.103,10.111,-1.489,2.988,2.317,2.683
53.8,-0.117,9.689,-1.398,0.488,2.5,1.463
53.85,1.003,10.455,-1.731,-1.829,1.585,-1.463
53.9,0.12,9.462,-1.559,-3.476,2.012,-2.073
53.95,0.232,9.871,-1.264,2.5,3.415,-5.915
54.0,0.438,9.96,-1.741,2.317,2.134,-6.22
54.05,0.311,9.965,-1.286,15.488,3.232,-4.268
54.1,-0.189,9.91,-1.269,-0.427,3.415,2.988
54.15,0.273,10.075,-1.192,2.073,0.0,-0.61
54.2,0.742,10.381,-1.894,2.378,4.329,-3.659
54.25,0.0,9.996,-1.544,0.244,1.89,-2.622
54.3,-0.302,10.338,-1.597,-2.744,2.622,-1.585
54.35,0.074,10.072,-1.307,1.22,3.232,-2.378
54.4,-0.041,10.051,-1.197,2.317,3.659,-2.5
54.45,0.551,9.814,-1.391,0.488,4.939,-12.622
54.5,0.235,9.914,-1.554,3.841,3.171,-11.646
54.55,-0.306,9.663,-1.358,8.902,3.902,-9.207
54.6,-0.761,9.517,-1.41,14.329,5.122,-2.012
54.65,-0.136,10.171,-1.899,30.915,6.341,1.22
54.7,0.196,10.077,-2.018,12.134,7.256,-1.341
54.75,-0.017,10.048,-1.872,11.098,4.573,-0.671
54.8,-0.026,10.297,-2.078,10.915,4.146,-9.573
54.85,0.563,10.283,-2.55,8.963,3.659,-9.512
54.9,-0.575,9.764,-1.946,5.366,5.549,-10.549
54.95,-0.079,9.658,-1.891,10.244,1.646,-8.902
55.0,0.539,9.519,-1.958,14.451,5.976,-10.366
55.05,-0.17,9.905,-2.746,15.244,7.744,-11.768
55.1,-0.342,10.192,-2.715,9.695,4.329,-8.049
55.15,-0.539,10.436,-3.273,-2.744,2.256,-3.659
55.2,-0.692,10.084,-2.425,-6.22,0.671,2.866
55.25,-0.122,9.673,-2.059,1.402,2.805,-4.146
55.3,-0.45,9.653,-2.67,5.61,2.927,-2.073
55.35,0.177,10.096,-2.717,0.427,-0.305,2.073
55.4,0.115,10.123,-2.495,1.463,-2.744,-7.378
55.45,0.067,9.914,-2.301,2.805,-2.134,-4.024
55.5,-0.103,10.364,-2.648,1.89,-1.402,-7.073
55.55,-0.383,9.821,-2.885,0.061,-1.341,-3.476
55.6,-0.757,9.802,-2.526,3.293,-0.854,-3.902
55.65,-0.584,9.73,-2.562,4.878,-1.037,-2.561
55.7,-0.67,9.893,-2.931,5.061,-2.866,1.829
55.75,-0.393,10.032,-2.986,-0.488,-1.159,1.28
55.8,-0.764,10.051,-2.775,-2.5,0.427,4.268
55.85,-0.115,10.029,-2.526,0.915,-0.854,2.927
55.9,-0.56,10.025,-2.849,2.683,0.427,4.451
55.95,-0.622,9.811,-2.823,2.622,0.793,5.366
56.0,-0.589,9.831,-2.897,0.854,1.89,6.037
56.05,-0.543,10.072,-2.974,0.488,2.378,0.976
56.1,-0.601,9.835,-2.883,1.524,2.317,-0.549
56.15,0.175,9.677,-2.813,1.402,3.415,-2.012
56.2,-0.115,9.857,-3.0,0.122,1.707,-3.11
56.25,-0.134,10.075,-2.878,-0.549,2.988,-2.317
56.3,-0.113,9.843,-2.658,0.61,2.805,-2.012
56.35,-0.034,9.838,-2.761,1.037,2.134,-0.549
56.4,0.304,9.95,-3.026,-1.28,1.402,-14.817
56.45,0.06,9.864,-2.607,-2.134,-1.159,-4.268
56.5,-0.29,10.312,-3.053,-2.866,1.463,6.768
56.55,-0.132,9.859,-2.787,-1.829,1.159,6.463
56.6,-0.098,9.979,-3.024,0.732,0.305,1.951
56.65,0.005,9.895,-3.086,1.037,-0.793,-2.561
56.7,0.129,10.245,-2.94,-2.256,2.195,2.561
56.75,0.163,10.101,-2.871,-3.049,1.098,1.098
56.8,0.192,9.562,-2.806,-3.902,1.768,0.732
56.85,0.555,10.312,-2.72,-3.232,0.122,-1.28
56.9,0.105,10.245,-2.416,1.768,-0.732,-0.61
56.95,0.474,10.439,-3.086,-0.366,0.976,14.817
57.0,0.247,9.974,-3.065,-6.585,1.463,1.28
57.05,0.254,10.202,-2.761,-9.512,0.305,-2.317
57.1,-0.045,10.221,-2.605,-9.939,0.793,-2.195
57.15,0.192,9.548,-2.277,-7.012,0.488,-1.768
57.2,-0.251,9.859,-2.047,-0.366,2.256,-2.134
57.25,0.395,10.187,-2.591,5.244,1.768,-0.305
57.3,0.405,10.099,-2.904,2.866,2.439,0.671
57.35,0.388,9.814,-2.124,10.915,-3.72,1.037
57.4,0.129,10.171,-2.071,16.159,-10.549,-6.707
57.45,0.814,9.771,-3.139,12.073,-5.244,-4.634
57.5,0.091,10.075,-2.928,5.305,-7.378,-10.0
57.55,-0.026,9.711,-2.868,-1.768,-6.707,-5.305
57.6,0.019,9.658,-2.655,-1.524,-8.537,-3.902
57.65,0.244,9.919,-2.523,-2.988,-9.085,-3.476
57.7,-0.405,9.586,-2.224,0.549,-10.244,1.28
57.75,-0.311,11.032,-2.737,-6.585,-9.268,4.756
57.8,-0.309,9.5,-2.313,-3.78,-9.695,3.72
57.85,0.148,9.747,-2.258,-2.073,-7.805,6.463
57.9,0.855,10.058,-2.198,0.915,-7.195,5.305
57.95,0.101,9.716,-2.301,15.549,-5.427,9.207
58.0,0.259,10.132,-2.409,2.317,-6.463,12.622
58.05,0.311,10.542,-2.909,0.122,-1.951,5.427
58.1,1.295,10.252,-2.473,1.22,-15.427,-5.61
58.15,0.275,10.082,-2.648,-1.098,3.598,-2.073
58.2,0.577,10.005,-2.535,-1.707,1.22,-0.915
58.25,0.615,10.281,-2.567,0.488,3.659,-3.902
58.3,0.283,10.003,-2.66,0.183,1.707,-1.463
58.35,0.893,9.977,-2.83,0.183,3.049,-2.988
58.4,0.702,9.989,-2.444,-0.244,2.744,-2.073
58.45,0.558,10.015,-2.655,0.244,2.134,-2.378
58.5,0.79,10.082,-2.43,-0.244,3.11,-2.805
58.55,0.527,10.044,-2.535,0.183,2.317,-2.439
58.6,0.85,10.082,-2.464,-0.244,2.683,-2.5
58.65,0.113,9.936,-2.969,-2.073,3.659,7.439
58.7,0.5,9.828,-2.832,-0.671,2.866,6.22
58.75,1.061,10.159,-2.72,-0.183,2.927,3.354
58.8,0.991,10.025,-2.749,-1.463,5.0,-6.707
58.85,1.142,9.764,-2.205,-0.061,4.695,-3.232
58.9,0.733,10.439,-2.26,2.622,5.488,-4.878
58.95,1.13,9.649,-2.466,-2.073,5.671,-0.976
59.0,0.836,10.544,-2.641,-1.768,4.939,-0.976
59.05,1.12,10.154,-3.014,-1.098,5.305,-6.159
59.1,0.895,10.499,-2.887,-2.988,5.915,-2.866
59.15,0.939,9.718,-2.361,-3.598,10.244,-5.305
59.2,0.486,9.632,-2.231,-1.341,10.671,-3.537
59.25,0.462,10.338,-2.382,-3.293,10.305,-2.927
59.3,0.962,10.353,-2.61,-10.793,7.073,2.744
59.35,1.314,10.685,-2.282,-11.646,7.561,-0.549
59.4,1.216,10.542,-1.851,-3.415,1.951,-6.585
59.45,0.716,10.278,-2.397,-0.427,1.646,-1.037
59.5,0.654,10.216,-2.789,-7.256,1.037,-2.439
59.55,0.709,9.768,-1.712,-5.915,3.476,-3.476
59.6,0.836,10.051,-1.638,1.098,3.293,-9.451
59.65,0.682,10.439,-2.449,-4.085,1.768,-12.439
59.7,0.512,10.204,-2.26,-4.085,0.854,-14.512
59.75,0.445,10.07,-1.709,0.427,2.439,-29.878
59.8,-0.105,10.381,-2.152,2.683,2.439,-14.939
59.85,-0.242,10.029,-2.195,-2.317,2.561,-11.829
59.9,-0.144,9.658,-1.908,-2.256,5.732,-11.585
59.95,0.11,10.585,-1.949,-2.012,3.72,-9.329
60.0,-0.098,10.178,-2.033,-0.122,3.171,-9.756
60.05,-0.199,9.914,-2.076,1.524,2.256,-10.183
60.1,-0.563,10.123,-2.162,-15.61,3.171,-7.439
60.15,-0.079,9.878,-1.987,-0.366,4.878,-7.805
60.2,0.124,9.993,-2.102,-1.22,3.659,-7.927
60.25,-0.139,9.776,-1.607,0.793,3.537,-4.146
60.3,-0.213,9.962,-2.105,15.183,2.195,-3.659
60.35,-0.093,9.979,-1.92,-0.366,4.512,0.854
60.4,0.551,9.821,-1.961,-1.098,3.354,6.28
60.45,0.907,10.015,-2.105,0.366,1.768,2.378
60.5,-0.06,10.345,-2.109,1.585,3.354,7.134
60.55,0.026,10.027,-1.939,15.366,1.707,-0.915
60.6,0.081,9.665,-1.714,-0.549,3.415,-15.488
60.65,0.491,10.12,-2.358,0.671,2.134,-2.927
60.7,-0.045,9.847,-1.721,-1.89,3.841,-2.927
60.75,0.716,9.357,-2.011,-1.463,2.988,-3.049
60.8,0.17,10.101,-1.889,1.037,0.732,-3.049
60.85,0.031,10.06,-2.339,0.732,3.72,-0.854
60.9,-0.541,10.338,-2.502,-5.854,1.159,-2.073
60.95,0.153,10.161,-1.942,-4.756,1.646,-1.951
61.0,0.414,9.965,-1.748,1.463,2.927,-2.744
61.05,0.132,10.592,-1.583,-1.159,4.085,-3.902
61.1,-0.527,10.257,-2.361,-4.573,0.915,-1.707
61.15,0.108,9.22,-1.683,-2.134,3.049,-2.134
61.2,0.359,10.262,-1.97,1.585,1.28,-3.598
61.25,-0.079,10.496,-2.241,-2.256,4.268,-1.585
61.3,0.057,10.379,-2.174,-12.439,-0.61,-3.841
61.35,0.034,10.178,-1.669,-12.5,3.354,0.61
61.4,0.326,10.18,-1.508,-3.415,4.024,-3.354
61.45,0.287,10.053,-1.228,0.244,3.537,-2.256
61.5,-0.16,10.235,-1.76,-3.171,-2.073,-3.11
61.55,0.534,10.173,-1.264,-1.28,5.61,-0.366
61.6,0.266,10.297,-1.604,-3.598,2.744,-3.963
61.65,0.184,9.787,-1.293,-15.488,3.841,-1.646
61.7,-0.194,9.694,-1.238,3.293,0.122,-4.024
61.75,0.39,10.537,-1.458,16.402,-3.841,-19.451
61.8,0.594,10.942,-1.846,20.732,-0.305,-25.854
61.85,0.292,10.175,-2.626,12.866,4.329,-19.878
61.9,-1.025,10.93,-2.583,2.073,5.976,-6.22
61.95,-0.826,11.205,-2.085,-6.646,5.183,2.561
62.0,-0.366,10.862,-2.531,-8.049,6.28,1.829
62.05,-0.335,10.025,-1.729,0.427,2.805,4.573
62.1,-0.156,10.542,-1.987,-0.061,4.756,1.341
62.15,-0.433,10.379,-1.19,2.134,2.927,-0.793
62.2,-0.417,10.063,-1.788,2.256,4.695,3.293
62.25,-0.627,9.333,-1.805,9.634,8.171,-1.951
62.3,-0.522,9.766,-1.987,15.244,1.037,0.793
62.35,-0.23,10.183,-2.081,12.378,3.354,1.28
62.4,-0.043,9.586,-2.224,13.476,1.89,6.951
62.45,-0.563,9.342,-2.27,21.037,-6.951,18.049
62.5,-0.443,9.543,-2.808,19.878,-10.732,26.89
62.55,-0.242,10.63,-2.895,0.366,-11.28,29.817
62.6,0.69,9.615,-2.837,31.159,-12.866,25.976
62.65,2.691,10.42,-3.929,8.963,-1.098,-8.963
62.7,0.35,10.01,-3.982,-4.695,0.793,-7.012
62.75,0.857,10.171,-3.376,-11.646,-1.951,-6.646
62.8,0.388,10.185,-2.377,-6.951,-0.244,-16.524
62.85,1.061,9.361,-2.363,1.22,-2.988,-25.915
62.9,0.069,9.929,-2.478,2.073,-3.171,-8.293
62.95,-0.867,9.414,-2.796,3.72,-3.537,-4.146
63.0,0.333,9.668,-2.763,9.024,-1.098,-2.195
63.05,0.824,10.001,-3.098,7.561,-1.402,-1.524
63.1,0.232,9.934,-2.935,4.756,-2.561,-6.707
63.15,0.199,10.051,-3.807,-1.159,2.378,-8.476
63.2,-0.218,10.044,-3.294,-3.78,-2.378,-10.549
63.25,0.134,10.324,-3.261,-15.305,2.134,-9.085
63.3,0.201,10.321,-2.95,1.524,-4.329,-2.683
63.35,-0.742,10.381,-3.292,-2.5,-2.317,-8.171
63.4,-0.922,10.173,-2.971,-0.488,4.634,-0.488
63.45,-0.694,9.522,-2.571,3.354,0.305,1.22
63.5,0.321,9.448,-2.734,10.061,-1.463,-1.037
63.55,-0.759,10.76,-3.867,9.817,3.11,-0.122
63.6,-0.773,10.551,-3.936,6.524,4.146,8.354
63.65,-0.124,10.448,-4.02,-8.171,5.549,4.207
63.7,1.034,9.34,-3.089,-17.622,11.098,-2.744
63.75,0.034,10.178,-3.529,-16.768,6.098,0.244
63.8,0.034,8.832,-3.383,-11.951,9.756,1.463
63.85,-0.153,10.405,-2.188,-9.085,9.451,-15.61
63.9,0.4,9.558,-1.949,-3.171,6.037,-1.037
63.95,0.565,9.843,-3.019,1.646,4.878,-2.012
64.0,-0.417,9.957,-2.931,-0.427,9.695,-1.28
64.05,0.632,9.285,-3.649,-4.39,10.305,-0.671
64.1,0.273,10.637,-2.72,1.707,8.232,15.427
64.15,0.857,10.089,-2.65,0.061,10.61,-1.768
64.2,0.455,9.874,-2.988,-5.366,14.634,-1.341
64.25,0.467,9.208,-2.447,-5.976,9.756,-0.854
64.3,-0.306,10.384,-2.416,2.073,2.134,-3.11
64.35,0.261,10.434,-2.313,5.854,1.341,-1.341
64.4,0.371,9.924,-3.017,5.183,1.402,2.683
64.45,0.694,9.62,-2.741,1.341,3.841,-3.293
64.5,1.367,9.996,-2.655,-1.524,0.488,-6.402
64.55,0.967,10.764,-3.053,-5.915,1.646,-14.024
64.6,1.07,9.761,-1.884,-5.793,3.902,-13.659
64.65,0.093,9.708,-2.564,-1.037,-1.28,-14.146
64.7,0.567,9.864,-2.662,-1.585,-1.768,-17.439
64.75,0.192,10.683,-2.576,-1.28,15.183,-10.366
64.8,-0.754,10.343,-1.65,3.78,-0.671,-12.439
64.85,-0.366,9.309,-2.428,3.72,-0.488,-10.305
64.9,-1.286,10.649,-3.345,5.366,-1.646,-11.098
64.95,-0.488,10.197,-2.428,1.646,-0.061,-11.28
65.0,-0.541,10.379,-2.61,9.085,-1.159,-11.22
65.05,-0.654,11.31,-2.433,12.073,-5.366,-4.268
65.1,-0.101,9.591,-2.607,11.646,-3.72,-6.22
65.15,-0.285,10.391,-3.491,7.378,0.61,-10.915
65.2,-0.627,10.017,-3.184,-0.854,3.415,-9.878
65.25,-1.81,10.324,-2.708,1.707,1.463,1.829
65.3,-1.463,9.823,-2.89,1.646,0.854,-1.22
65.35,-0.867,9.632,-3.17,1.098,3.11,3.537
65.4,0.067,9.637,-2.931,1.28,4.756,-3.537
65.45,-1.628,9.773,-2.919,2.866,1.402,3.598
65.5,-0.213,9.826,-2.899,6.829,1.037,3.963
65.55,0.309,9.29,-3.668,0.732,3.841,-1.341
65.6,-0.18,10.053,-3.575,-5.488,5.915,1.463
65.65,-0.031,9.826,-3.61,-13.293,5.854,3.11
65.7,-0.034,10.556,-3.074,-13.232,6.098,3.049
65.75,-0.555,10.245,-2.82,-7.134,2.927,-9.573
65.8,-0.79,10.108,-2.409,-4.695,-15.366,8.171
65.85,-0.048,9.807,-2.164,-2.805,2.073,10.183
65.9,-0.261,9.232,-2.136,-0.122,4.756,9.756
65.95,-0.091,9.515,-2.672,-2.073,3.293,3.78
66.0,0.278,10.163,-3.412,-8.354,3.11,0.549
66.05,0.144,9.562,-2.289,-9.573,2.622,-1.159
66.1,-0.443,9.471,-2.744,-2.988,4.695,10.976
66.15,-0.273,10.168,-3.057,-8.171,4.695,9.268
66.2,0.613,9.505,-2.186,-0.061,0.183,6.098
66.25,1.02,9.79,-2.492,12.439,1.524,-7.622
66.3,0.479,10.221,-3.223,2.866,0.305,-7.134
66.35,-0.481,9.72,-3.098,-6.22,3.049,-1.951
66.4,0.345,9.811,-2.492,-5.427,2.317,0.427
66.45,0.876,9.534,-1.937,3.354,5.61,-6.28
66.5,0.28,9.78,-2.552,3.049,2.317,-4.329
66.55,0.369,9.833,-2.95,-3.537,0.976,1.463
66.6,0.077,10.523,-2.413,-5.122,15.549,-0.671
66.65,0.63,9.864,-2.44,3.78,1.341,-14.146
66.7,1.338,10.171,-1.822,4.817,4.207,-0.61
66.75,1.202,9.967,-2.696,8.659,2.561,-3.293
66.8,-0.189,9.74,-2.564,10.488,0.61,2.256
66.85,0.943,9.855,-3.225,13.902,-0.793,-1.768
66.9,0.728,10.221,-3.247,18.293,3.232,-2.805
66.95,-0.081,10.283,-3.287,13.963,2.439,1.646
67.0,0.206,9.811,-3.393,10.488,2.195,2.012
67.05,0.436,9.936,-3.505,8.598,3.72,-5.915
67.1,0.424,9.965,-3.67,11.707,-0.366,-5.061
67.15,-0.041,10.183,-3.862,7.744,-1.098,-0.366
67.2,0.52,9.895,-3.847,6.646,-13.963,-2.378
67.25,0.237,9.974,-3.618,4.878,-15.61,-4.207
67.3,0.055,9.871,-3.603,4.329,0.366,-3.232
67.35,0.4,10.099,-3.754,3.902,-15.549,-4.939
67.4,0.12,9.907,-3.713,2.317,1.951,-1.037
67.45,0.33,9.993,-3.917,-2.805,2.744,-0.976
67.5,0.031,9.864,-3.505,-1.951,2.378,-3.841
67.55,-0.208,9.692,-3.742,0.366,2.439,-1.402
67.6,0.33,10.151,-3.74,0.366,1.22,-2.866
67.65,0.172,9.45,-4.271,-2.805,1.037,-4.756
67.7,0.409,9.744,-3.783,1.646,2.073,-0.854
67.75,0.541,9.922,-3.8,-14.939,3.902,-2.5
67.8,0.223,9.73,-4.563,15.427,1.098,-3.049
67.85,0.35,9.761,-3.596,-15.549,2.622,-2.866
67.9,-0.022,9.553,-3.917,15.366,1.28,-4.146
67.95,-0.39,9.886,-3.474,0.488,2.561,-3.293
68.0,0.306,9.711,-3.979,0.061,1.402,-3.232
68.05,-0.038,10.065,-3.768,0.122,1.098,-2.134
68.1,0.488,10.094,-3.136,15.244,1.89,-5.61
68.15,-0.117,10.039,-3.381,0.427,2.195,-2.805
68.2,0.17,9.814,-3.847,-1.89,3.11,-1.646
68.25,-0.002,9.258,-3.414,-0.488,-1.585,-2.195
68.3,-0.089,9.57,-3.67,3.78,4.207,-2.317
68.35,0.249,10.142,-3.946,-0.915,2.378,-2.866
68.4,0.728,9.728,-3.503,-0.793,0.488,-3.476
68.45,0.658,9.972,-4.082,13.293,-7.195,-20.122
68.5,0.826,10.695,-5.078,10.671,-5.854,-46.768
68.55,0.098,11.595,-5.291,-4.878,-1.22,-17.256
68.6,-0.828,9.996,-3.759,-20.061,4.451,-13.841
68.65,-1.109,8.961,-3.383,-27.134,5.854,-5.366
68.7,-0.651,9.266,-3.33,-31.951,4.817,-1.22
68.75,-0.97,9.469,-2.318,-32.073,7.012,2.195
68.8,-0.541,9.404,-2.267,-27.134,7.5,-4.268
68.85,0.373,10.06,-2.109,-19.939,5.732,-1.89
68.9,-0.357,9.704,-1.719,-11.402,8.841,-1.829
68.95,-0.232,10.841,-1.571,-10.244,6.89,-0.061
69.0,-0.381,9.469,-1.211,-2.683,12.927,-0.183
69.05,-0.041,10.175,-1.331,2.744,14.024,1.159
69.1,-0.453,9.84,-1.532,6.463,13.963,0.732
69.15,-0.081,10.781,-1.865,7.439,16.89,0.854
69.2,-1.061,8.6,-2.162,15.915,2.744,25.122
69.25,-1.295,9.297,-2.33,31.646,-3.232,26.402
69.3,1.427,9.759,-3.28,59.512,-2.378,1.707
69.35,1.451,10.451,-5.602,34.207,1.463,-7.256
69.4,0.421,10.688,-6.345,-7.5,7.073,-1.463
69.45,0.014,10.221,-4.741,-31.22,1.89,-2.561
69.5,0.153,9.689,-2.935,-28.537,2.866,-3.72
69.55,0.151,10.046,-2.136,-27.378,3.78,-2.744
69.6,0.014,9.62,-1.714,-0.427,1.89,-1.341
69.65,0.041,9.857,-2.636,20.122,2.439,-2.256
69.7,0.275,9.701,-3.61,18.902,2.378,-2.256
69.75,0.29,10.125,-4.312,8.232,1.89,-2.073
69.8,0.441,9.965,-4.492,-2.988,2.988,-2.256
69.85,0.34,9.965,-3.814,-12.927,2.256,-3.963
69.9,0.077,9.807,-2.823,-10.0,2.439,-2.439
69.95,0.177,9.878,-2.634,-0.427,2.988,-1.768
