Time,Acc X,Acc Y,Acc Z,Gyro X,Gyro Y,Gyro Z
0.05,0.268,10.089,-1.501,0.061,2.561,-2.378
0.1,0.306,10.082,-1.52,-15.61,2.622,-2.317
0.15,0.242,10.027,-1.504,-0.061,2.5,-2.073
0.2,0.182,10.027,-1.676,0.122,2.5,-2.134
0.25,0.232,10.048,-1.451,-0.122,2.683,-2.256
0.3,0.242,10.075,-1.448,0.122,2.439,-2.195
0.35,0.227,10.07,-1.484,-15.549,2.683,-2.378
0.4,0.271,10.108,-1.389,-0.244,2.561,-2.317
0.45,0.244,10.108,-1.602,15.549,2.439,-2.195
0.5,0.208,10.106,-1.592,-0.183,2.805,-2.256
0.55,0.273,9.96,-1.535,0.183,2.927,-2.317
0.6,-0.038,10.228,-1.437,-0.244,2.561,-2.378
0.65,0.783,10.451,-1.544,-1.037,2.622,-2.317
0.7,0.11,10.262,-1.417,15.244,2.622,-1.951
0.75,0.184,10.513,-1.669,-15.122,2.622,-2.317
0.8,0.175,10.245,-1.662,0.244,2.195,-2.744
0.85,0.397,9.878,-1.293,0.366,2.866,-2.256
0.9,-0.077,9.917,-1.664,2.927,2.439,-1.707
0.95,0.285,10.355,-1.693,6.89,2.195,-2.744
1,0.51,9.91,-1.542,4.756,2.073,-2.256
1.05,0.153,9.73,-0.939,9.878,2.622,-1.951
1.1,0.187,9.876,-1.784,0.061,3.902,-1.646
1.15,-0.113,10.127,-1.535,18.232,-0.732,-3.049
1.2,0.029,10.46,-2.21,19.573,0.793,-0.915
1.25,-0.055,10.302,-2.375,15.976,1.829,-0.915
1.3,0.239,9.871,-2.722,13.598,2.866,-1.89
1.35,0.599,9.761,-2.528,14.085,2.866,-2.195
1.4,1.053,10.618,-3.426,10.915,2.256,-5.915
1.45,-0.393,10.156,-3.122,-15.549,3.659,-1.22
1.5,0.366,10.309,-2.871,-7.988,2.622,-1.89
1.55,0.611,10.12,-2.296,-8.293,4.573,1.585
1.6,0.869,10.113,-2.021,-2.744,1.768,-2.622
1.65,0.35,9.369,-2.456,4.085,5.244,-1.098
1.7,-0.508,9.981,-2.38,6.768,5.305,-0.427
1.75,0.639,10.345,-2.279,12.805,4.268,-4.085
1.8,0.936,10.082,-2.911,19.207,9.573,-4.451
1.85,-0.56,10.444,-2.205,18.293,10.549,-3.841
1.9,1.168,9.725,-3.804,6.402,20.549,-5.122
1.95,1.003,9.608,-3.742,1.768,16.646,-2.5
2,0.742,9.05,-3.014,-0.793,20.366,-6.646
2.05,0.376,10.264,-3.668,-7.805,16.524,-3.293
2.1,0.103,9.967,-2.337,-6.524,19.268,-3.354
2.15,1.298,10.058,-2.952,-7.927,18.171,-6.341
2.2,-0.711,10.709,-2.739,-5.915,19.329,4.146
2.25,0.848,10.862,-3.302,-2.439,4.695,-0.915
2.3,2.497,9.986,-2.816,-3.598,-15.183,-15.366
2.35,0.036,8.94,-2.976,-0.976,5.732,-7.317
2.4,-0.175,10.42,-2.772,-4.573,11.768,-9.207
2.45,-0.424,9.972,-2.339,-7.5,4.634,-4.756
2.5,-0.16,9.828,-2.818,-7.256,2.561,-1.585
2.55,-0.457,10.266,-1.875,-3.232,4.207,-15.183
2.6,1.235,10.214,-2.26,-0.976,3.659,-3.232
2.65,-0.263,10.657,-1.978,3.78,4.024,-7.561
2.7,0.089,8.617,-3.371,8.78,0.244,-8.293
2.75,-1.358,10.781,-1.803,7.866,4.573,-9.207
2.8,-0.426,11.123,-3.017,3.598,-1.402,-3.11
2.85,-0.029,11.179,-3.304,2.5,-5.976,-2.927
2.9,0.541,10.97,-2.933,7.378,-2.256,-6.037
2.95,-0.424,10.697,-3.031,3.232,-4.939,-8.476
3,-0.022,9.711,-2.243,1.159,-8.598,-0.488
3.05,-0.306,10.827,-2.94,4.085,-8.354,15.183
3.1,0.098,9.275,-3.493,1.524,-8.537,2.866
3.15,0.994,10.436,-3.266,14.573,-9.39,-0.427
3.2,-0.716,10.317,-3,7.256,-11.585,2.622
3.25,-0.496,9.675,-3.421,-11.524,-6.037,6.829
3.3,0.192,9.838,-3.879,2.805,0.183,13.11
3.35,0.611,9.292,-3.469,7.256,-3.902,2.134
3.4,0.036,9.941,-3.426,7.073,2.988,-3.659
3.45,-1.099,10.506,-2.885,14.817,3.354,8.598
3.5,0.464,9.773,-2.816,1.28,1.341,-0.549
3.55,0.862,10.015,-3.067,2.5,3.537,-1.524
3.6,1.286,9.922,-3.498,1.098,1.159,-1.646
3.65,1.144,9.146,-3.306,4.634,0.854,-5.366
3.7,0.515,9.459,-2.732,7.195,4.634,-13.841
3.75,0.369,9.349,-3.776,4.024,15.976,0.366
3.8,0.869,9.756,-3.891,4.512,11.098,-5.183
3.85,0.043,10.211,-3.958,-14.329,13.963,-0.549
3.9,0.347,10.46,-4.096,0.671,12.744,1.098
3.95,-0.239,10.056,-3.776,-4.451,3.659,-0.793
4,1.233,9.591,-3.316,-5.732,-1.28,0.183
4.05,0.575,9.483,-3.361,-5.976,-1.585,0.427
4.1,0.426,9.649,-3.486,-3.171,-0.793,-5.061
4.15,0.761,9.519,-2.782,-1.707,6.585,-11.829
4.2,0.014,11.332,-3.352,-4.268,-14.451,-15.549
4.25,0.709,10.123,-3.462,-1.402,5.244,-10.427
4.3,-0.874,9.28,-3.677,-4.024,5.61,-1.829
4.35,-0.464,10.135,-4.135,-9.817,-2.805,0.183
4.4,0.946,9.426,-2.653,-7.683,4.878,-5.366
4.45,-0.084,10.092,-2.99,-4.695,4.634,-3.537
4.5,0.28,9.424,-3,-15.427,2.622,-4.451
4.55,0.369,9.234,-1.918,14.817,0.671,-6.829
4.6,1.302,9.084,-3.194,4.024,14.939,-8.598
4.65,1.032,8.866,-3.124,5.183,1.402,-9.024
4.7,0.093,9.404,-3.366,-4.512,0.305,-7.561
4.75,-0.376,11.401,-4.233,-8.415,1.768,-9.268
4.8,-0.417,9.965,-3.603,-8.232,3.415,-6.829
4.85,0.73,8.878,-2.935,-13.049,1.951,-4.512
4.9,0.462,10.259,-2.112,2.805,1.951,-4.207
4.95,0.026,9.888,-3.371,2.378,-2.073,-4.451
5,-1.415,10.683,-3.311,6.768,-5.244,-0.488
5.05,-2.188,10.465,-3.428,2.866,-9.817,-2.866
5.1,-0.821,10.501,-3.215,2.744,-3.659,2.683
5.15,-2.145,10.817,-3.098,3.537,-7.5,1.341
5.2,0.141,9.488,-3.182,1.402,-8.171,12.256
5.25,0.074,9.505,-3.199,10.244,-4.634,6.037
5.3,-0.484,9.431,-3.12,9.817,-4.756,13.72
5.35,1.334,8.911,-3.373,6.829,1.951,-1.463
5.4,1.001,10.022,-3.792,5.061,7.012,4.695
5.45,0.366,9.998,-3.828,-2.012,-0.915,-9.024
5.5,-0.201,10.345,-3.512,-8.841,1.159,0.366
5.55,-0.769,9.582,-2.95,-7.439,1.28,1.159
5.6,0.601,9.481,-2.856,0.366,1.28,-15.61
5.65,0.888,10.266,-2.409,2.622,2.866,-1.463
5.7,0.055,9.744,-3.316,10.61,1.89,-7.866
5.75,1.094,10.168,-3.821,8.72,1.585,-5.244
5.8,0.089,9.151,-3.63,3.902,17.805,-4.939
5.85,0.347,9.517,-3.644,1.646,18.293,-8.354
5.9,0.405,9.285,-3.622,-3.476,11.768,-3.293
5.95,0.196,9.953,-3.675,-4.512,9.939,-4.573
6,-0.421,9.895,-3.065,-0.549,9.39,0.915
6.05,0.637,9.637,-2.871,-14.634,7.744,-0.061
6.1,0.326,9.421,-3.579,1.524,5.244,-1.22
6.15,0.093,9.242,-3.692,1.768,4.146,-5.488
6.2,0.354,9.828,-4.087,15.488,11.951,-1.098
6.25,-1.36,9.385,-4.343,-2.622,2.622,8.598
6.3,-1.326,10.364,-3.78,-6.951,-0.793,0.61
6.35,1.271,9.912,-3.263,-8.354,3.841,-9.024
6.4,-0.934,8.033,-4.085,-15.549,0.488,5.549
6.45,-0.91,9.258,-3.8,-0.549,1.098,-0.732
6.5,0.048,10.226,-2.677,2.744,-0.305,-6.646
6.55,0.014,9.096,-3.077,4.085,-1.098,-4.695
6.6,1.322,10.214,-3.57,-1.768,1.89,-6.037
6.65,-0.381,9.495,-4.396,-5.183,3.049,-6.402
6.7,0.457,10.436,-2.823,-7.5,-1.098,-4.817
6.75,1.994,10.111,-3.165,-2.5,13.049,-7.256
6.8,-0.158,9.354,-2.727,-15,4.024,-5.732
6.85,-0.848,10.364,-2.837,1.585,-4.695,-4.085
6.9,0.697,9.483,-2.921,5.61,-5,-0.549
6.95,0.618,8.878,-4.183,4.634,-5.122,-4.024
7,-1.061,9.934,-3.225,0.549,-5.854,6.159
7.05,-1.484,10.527,-2.868,14.817,-10.549,15.366
7.1,0.067,10.235,-3.306,15.122,-10.122,12.439
7.15,-0.412,9.823,-3.306,-15.488,-7.622,8.841
7.2,-0.845,9.974,-2.557,1.28,-4.207,8.72
7.25,0.967,9.625,-3.177,4.817,-4.939,2.134
7.3,2.054,10.271,-3.651,1.646,6.829,-7.866
7.35,-0.084,9.584,-4.532,-1.646,1.341,-1.098
7.4,0.589,10.683,-3.668,-3.232,2.744,-0.427
7.45,0.781,9.21,-2.873,-2.683,2.317,-2.073
7.5,0.029,9.948,-2.94,0.732,2.317,-10.61
7.55,1.14,9.421,-3.1,7.012,7.439,-6.585
7.6,0.247,10.144,-3.675,6.098,12.866,-3.476
7.65,0.539,9.543,-3.735,5.976,8.902,-6.707
7.7,-0.421,9.663,-3.575,-0.915,7.561,-1.646
7.75,0.479,9.804,-3.934,-1.28,7.744,3.293
7.8,0.472,9.419,-3.783,-1.524,5.976,-1.098
7.85,0.151,10.221,-2.617,-3.232,-0.366,-0.915
7.9,-0.405,9.869,-3.634,-1.463,15.122,2.866
7.95,-0.105,8.768,-3.45,-1.463,0.61,-3.78
8,1.154,9.752,-2.782,0.183,1.89,-0.183
8.05,0.725,10.053,-3.608,-1.585,-1.585,-0.366
8.1,-1.82,9.345,-3.002,-2.5,-2.5,16.463
8.15,-2.495,9.996,-3.306,-5.549,-5.976,-4.817
8.2,-0.591,11.36,-3.584,-10,4.817,-1.524
8.25,-0.151,10.63,-3.412,-11.524,2.073,3.598
8.3,1.516,9.778,-3.575,-9.207,2.5,-6.037
8.35,-0.417,9.562,-2.521,-4.939,1.646,-1.707
8.4,-0.263,9.89,-2.559,-1.89,1.585,-1.951
8.45,-1.678,11.016,-2.435,1.707,3.293,-10
8.5,0.517,9.768,-3.701,2.927,1.89,-5.854
8.55,0.953,9.541,-3.481,-0.305,1.463,-5.671
8.6,0.067,9.316,-2.892,-4.39,-3.659,-5.366
8.65,-0.57,10.111,-2.195,-3.963,0.976,-5.244
8.7,-1.64,11.485,-3.227,3.476,1.098,-5.976
8.75,1.082,10.372,-4.187,1.829,0.915,-4.939
8.8,-2.057,11.7,-3.014,1.402,-1.098,-1.707
8.85,-0.053,8.868,-3.414,2.561,-10.427,4.512
8.9,-0.156,10.989,-3.115,8.11,-5.854,-2.256
8.95,-0.637,10.563,-2.339,3.72,-0.915,1.951
9,-0.864,11.032,-3.481,4.512,-6.707,5.427
9.05,0.034,10.022,-3.05,4.207,-4.878,2.683
9.1,0.067,10.681,-3.182,6.524,-5.244,7.866
9.15,0.376,10.206,-3.156,7.195,-7.5,11.585
9.2,1.635,10.439,-3.208,3.232,4.634,1.341
9.25,0.491,10.434,-3.819,7.195,5.061,-7.805
9.3,0.12,8.935,-3.766,-0.671,1.524,-1.098
9.35,1.137,9.886,-3.752,-5.427,3.598,0.549
9.4,0.584,10.077,-2.998,-2.988,1.341,-3.049
9.45,-0.129,9.718,-2.89,-1.28,1.22,-1.22
9.5,0.702,9.175,-2.825,3.293,4.207,-0.732
9.55,-0.055,9.706,-2.476,4.39,1.159,-0.122
9.6,0.922,8.72,-3.457,5.61,4.878,-6.037
9.65,0.34,9.78,-3.539,8.841,0.061,-8.78
9.7,0.441,10.082,-3.668,3.537,20,-4.146
9.75,0.359,9.699,-4.099,1.829,21.341,-7.561
9.8,0.338,9.141,-3.239,-4.512,24.39,-3.232
9.85,0.572,9.426,-3.78,-3.11,25.244,-4.756
9.9,0.883,10.235,-3.254,-2.5,22.927,-3.049
9.95,0.718,9.673,-4.326,-1.463,27.988,-4.939
10,-0.543,10.527,-3.397,-4.39,17.134,1.402
10.05,-0.417,11.401,-4.032,-3.598,0.183,1.28
10.1,0.958,9.175,-3.644,-4.207,-9.573,-11.22
10.15,0.041,9.855,-3.555,-6.829,10.366,-5.183
10.2,1.274,11.076,-3.572,-1.585,2.683,-5.305
10.25,-0.251,9.641,-3.819,-7.866,7.073,-12.073
10.3,0.366,10.094,-3.701,-12.988,-1.951,-3.171
10.35,0.196,9.498,-2.914,-11.159,3.72,-4.634
10.4,-0.194,9.519,-2.658,-8.841,2.378,-4.695
10.45,0.381,9.704,-2.717,-0.183,1.463,-9.268
10.5,0.898,9.749,-2.777,2.683,1.951,-7.073
10.55,1.058,9.527,-2.665,4.878,15.488,-7.561
10.6,1.192,8.971,-3.278,4.878,-0.732,-3.902
10.65,0.876,10.898,-3.175,-2.927,-8.78,-7.988
10.7,-0.359,9.371,-2.677,-1.524,-3.841,-6.524
10.75,-0.115,10.092,-3.12,-15.305,-4.451,-8.902
10.8,0.737,10.324,-3.278,3.049,-1.402,-2.5
10.85,0.405,7.843,-1.99,6.768,-1.159,-2.927
10.9,-0.424,8.001,-3.685,2.195,-4.39,-2.317
10.95,-0.917,9.553,-3.467,5.244,-10.061,3.963
11,-1.635,9.732,-3.053,2.927,-13.293,4.512
11.05,-0.522,9.333,-2.897,10.854,-16.341,9.085
11.1,0.225,10.937,-3.057,3.049,-3.232,7.378
11.15,-0.321,9.457,-3.345,8.354,-6.524,5.183
11.2,0.939,10.099,-3.033,3.72,-1.768,7.073
11.25,0.927,9.328,-3.27,1.646,3.476,-2.012
11.3,1.073,9.802,-3.673,-1.402,1.646,-5
11.35,0.103,9.687,-3.287,-3.171,-0.122,-2.378
11.4,0.342,10.262,-3.199,-4.634,-2.317,-5
11.45,-0.247,9.787,-3.132,-1.463,-2.988,0.854
11.5,0.268,10.072,-3.144,3.171,-3.171,0.061
11.55,0.558,10.637,-3.426,2.927,2.073,-2.622
11.6,0.354,10.053,-3.637,2.683,-0.793,-3.659
11.65,0.45,9.919,-3.225,-0.183,-1.159,-2.439
11.7,0.067,10.084,-3.723,0.488,1.707,-1.585
11.75,0.105,10.147,-3.498,-15.488,0.671,-2.927
11.8,0.235,9.9,-3.498,1.646,-0.915,-4.512
11.85,-0.122,10.053,-3.237,2.927,-3.902,15.549
11.9,0.567,9.452,-3.371,7.012,-4.024,-2.744
11.95,0.378,10.242,-3.61,5.915,0.671,-2.866
12,0.081,9.699,-4.113,0.793,-1.402,-0.671
12.05,0.208,10.001,-3.536,-3.537,1.646,-2.866
12.1,0.024,9.701,-3.232,-2.744,2.927,-3.841
12.15,0.402,10.312,-3.615,1.402,1.768,-3.415
12.2,0.247,9.898,-3.622,0.793,-2.439,-4.634
12.25,1.056,9.783,-3.601,-4.268,2.317,-6.341
12.3,0.081,9.713,-3.632,-6.585,3.11,-0.732
12.35,0.462,9.572,-2.964,-5.671,1.341,-6.037
12.4,0.079,8.205,-3.1,9.085,8.232,-13.598
12.45,-0.172,9.115,-3.321,24.634,0.427,-9.939
12.5,0.153,10.573,-3.634,23.049,1.585,-10.549
12.55,0.01,9.194,-4.207,17.317,0.427,-7.683
12.6,-0.117,10.563,-4.413,4.024,10.549,-10.183
12.65,-0.637,8.253,-4.604,15.183,8.841,-5.305
12.7,0.469,9.594,-3.551,-6.341,-0.183,-12.012
12.75,-0.857,9.5,-3.757,0.549,3.659,-14.085
12.8,-0.773,9.258,-3.34,4.024,0.366,-14.207
12.85,-0.9,9.811,-3.62,2.439,-1.159,-8.11
12.9,-0.905,11.241,-3.728,3.232,2.805,1.341
12.95,-0.419,9.237,-3.23,12.561,-0.122,-5.305
13,-1.013,9.029,-4.082,15.244,2.866,-1.22
13.05,-0.022,9.335,-3.826,22.683,3.598,-8.354
13.1,-0.527,9.984,-4.803,20.732,-1.524,-7.5
13.15,-0.792,11.942,-5.739,18.659,2.622,-2.805
13.2,-1.259,9.692,-5.703,-4.268,0.854,-5.183
13.25,-1.176,9.512,-5.006,-15.915,4.024,-0.793
13.3,-0.151,9.443,-3.845,-13.232,5.793,-2.805
13.35,-0.704,9.615,-4.211,-7.5,11.463,-2.561
13.4,-1.487,9.335,-3.661,-0.183,16.524,7.5
13.45,-0.63,9.522,-3.996,8.049,11.22,6.159
13.5,-1.106,9.517,-4.714,7.683,11.524,6.768
13.55,-0.017,9.548,-5.605,-5.671,10.61,3.354
13.6,-0.939,9.864,-4.336,-9.207,10.976,7.927
13.65,0.093,9.845,-4.324,-7.439,11.89,2.378
13.7,-0.713,10.211,-5.04,-6.402,9.024,7.866
13.75,-0.493,9.534,-4.458,-8.841,7.317,5.366
13.8,-0.323,10.379,-4.717,-23.841,0.549,1.585
13.85,0.462,10.032,-3.304,-20.915,15.305,-4.085
13.9,-0.117,9.795,-3.093,-9.39,0.915,1.646
13.95,-0.304,9.56,-3.986,-7.988,2.988,3.537
14,0.871,10.645,-3.33,-8.354,3.232,-0.854
14.05,-0.053,10.602,-3.567,-7.195,-3.293,0.122
14.1,0.9,9.141,-3.455,-13.171,-5.915,-14.024
14.15,-0.436,9.21,-2.998,-5.61,-3.72,-12.988
14.2,-0.869,9.905,-3.555,-10.732,2.256,-5.488
14.25,0.192,9.052,-3.311,-2.256,-3.415,-9.878
14.3,-0.644,9.747,-3.589,-3.963,-1.28,-7.378
14.35,0.096,10.503,-3.505,-5.244,-5.305,-12.927
14.4,-0.792,10.329,-3.496,-7.378,-0.549,-8.659
14.45,-0.658,10.063,-2.516,-2.988,-0.366,-6.951
14.5,-0.86,9.57,-2.895,3.293,3.293,-4.329
14.55,-0.697,10.532,-3.45,1.341,-0.427,-2.073
14.6,-0.357,10.482,-4.082,-10.671,5.427,-2.134
14.65,-0.644,9.855,-4.106,-34.146,0.244,-4.268
14.7,-0.646,10.398,-2.998,-44.512,3.232,-4.39
14.75,-1.152,9.34,-1.396,-40.488,-0.305,-1.707
14.8,-0.491,9.993,-1.705,-37.256,3.537,0.122
14.85,-0.608,10.168,-1.712,-33.537,3.171,-2.256
14.9,-0.931,10.039,-1.532,-31.707,2.195,-0.854
14.95,-0.419,10.381,-1.513,-34.512,2.378,-3.963
15,-0.74,10.039,-0.757,-33.293,2.927,1.037
15.05,0.311,9.95,-0.275,-46.707,0.488,-3.049
15.1,-0.17,10.092,-0.505,-32.927,3.293,-4.207
15.15,-0.725,10.053,0.5,-34.817,2.439,-0.427
15.2,-0.591,9.809,0.673,-32.927,6.28,1.89
15.25,0.302,9.819,0.498,-34.634,1.707,-3.354
15.3,-1.135,9.091,1.551,-28.293,-15.61,-1.463
15.35,-0.067,9.673,1.583,-18.171,-15.61,-4.207
15.4,-0.778,9.342,1.755,-3.78,1.951,-2.256
15.45,-0.431,9.685,1.918,4.451,3.476,-1.951
15.5,-0.168,10.02,1.01,14.573,-2.439,-6.28
15.55,-0.991,10.111,0.163,3.963,4.085,-1.28
15.6,-0.091,10.082,0.874,-10.915,2.683,-1.585
15.65,-0.893,9.938,1.094,-15.366,8.963,3.476
15.7,-0.754,9.9,0.86,-17.073,4.024,2.805
15.75,0.01,10.07,0.709,-34.634,-3.232,-10.61
15.8,-0.867,9.673,1.389,-48.476,2.073,0.976
15.85,-0.634,9.615,2.5,-42.622,13.78,7.317
15.9,-0.314,9.251,2.174,-49.451,7.927,3.659
15.95,-0.072,9.246,2.533,-47.378,5.366,-1.28
16,-0.345,8.825,2.794,-67.195,-4.512,-9.329
16.05,-0.745,8.981,2.449,-77.744,0.671,-3.78
16.1,-0.876,8.727,2.219,-104.756,0.793,0.854
16.15,-2.054,7.324,3.227,-87.561,-50.305,12.988
16.2,-0.393,7.367,6.44,-89.573,-36.707,32.256
16.25,2.698,1.257,9.565,-23.78,24.878,-5.854
16.3,1.592,6.369,9.718,17.5,8.659,10.488
16.35,1.362,7.865,8.351,-7.378,9.695,2.805
16.4,1.358,6.546,7.104,8.78,-0.793,-6.098
16.45,0.115,6.416,6.364,12.683,3.476,-2.134
16.5,0.448,6.627,5.564,14.329,-0.61,-6.22
16.55,0.903,7.166,5.294,18.232,7.805,-3.78
16.6,-0.117,7.053,5.567,18.963,10.732,-5.122
16.65,0.498,7.444,5.514,14.756,8.476,-1.707
16.7,0.304,6.917,5.758,21.829,9.817,-1.89
16.75,0.213,7.094,5.713,25.305,10.488,-2.317
16.8,0.323,7.056,5.483,39.329,13.476,-7.744
16.85,0.536,9.656,5.449,32.195,0.427,-34.695
16.9,-0.563,9.385,2.966,20.976,2.744,-30.549
16.95,-1.688,8.571,4.798,-8.293,-2.5,4.939
17,-0.292,8.152,5.442,-7.927,13.11,14.146
17.05,-0.328,8.217,4.518,-15.854,-6.585,7.134
17.1,0.081,7.542,5.167,-9.817,5.122,7.622
17.15,0.132,7.728,4.949,-9.085,-3.049,3.598
17.2,0.177,7.98,5.028,-8.659,2.256,5.244
17.25,0.438,8.071,4.872,-7.622,3.537,3.415
17.3,0.012,7.736,5.095,-6.707,-1.951,1.341
17.35,0.043,8.092,4.863,-9.268,-0.732,3.232
17.4,0.287,7.523,5.016,-7.256,5.305,4.634
17.45,0.01,7.561,5.124,-6.89,-0.915,5
17.5,1.132,7.661,4.913,-4.939,3.476,-1.098
17.55,0.855,7.405,5.387,-0.671,5.61,1.768
17.6,0.491,7.819,5.059,-1.585,1.098,-6.524
17.65,0.271,8.205,4.793,-9.329,0.488,-10.915
17.7,0.247,8.162,4.693,-6.402,-2.805,-8.537
17.75,-0.223,7.985,4.975,-33.171,0.915,0.671
17.8,4.824,7.333,8.796,-43.537,8.171,1.098
17.85,0.354,6.857,5.363,-26.585,2.744,-4.146
17.9,-0.146,6.443,6.333,-18.049,-5.183,-11.28
17.95,0.28,6.917,5.921,-17.256,-0.366,-7.012
18,0.115,6.036,6.404,-18.415,0.976,-5.366
18.05,0.218,5.595,6.946,-8.11,-2.134,-8.78
18.1,0.026,6.258,6.464,-5.183,-2.805,-7.317
18.15,0.445,6.476,6.323,-12.866,1.037,-1.098
18.2,-0.268,6.462,6.314,-15.549,-15.61,-2.134
18.25,0.204,6.385,6.778,-19.329,-0.854,-3.293
18.3,0.426,5.691,6.938,-17.256,1.707,1.037
18.35,0.302,6.275,6.895,-14.085,5.488,4.146
18.4,0.347,4.992,6.546,-2.5,2.134,-1.22
18.45,0.18,5.509,7.008,2.134,3.049,-1.402
18.5,0.204,5.306,7.151,0.427,4.146,-0.305
18.55,0.443,5.741,7.037,-0.854,3.171,-15.61
18.6,0.192,5.543,7.015,-0.671,8.354,4.451
18.65,0.443,5.787,6.929,-0.061,6.28,1.646
18.7,0.249,5.612,6.876,-0.671,4.451,-0.488
18.75,0.249,5.612,6.876,-0.671,4.451,-0.488
18.8,0.498,5.713,6.874,15.549,5.488,0
18.85,0.644,5.784,6.941,-14.695,3.049,-0.61
18.9,0.883,5.988,6.723,-1.768,2.683,-0.732
18.95,0.857,5.988,6.685,-0.976,2.683,-1.037
19,0.912,5.959,6.663,-1.768,3.659,-1.768
19.05,0.711,5.301,7.082,0.305,4.085,-2.561
19.1,-0.065,5.674,7.183,-0.488,2.195,0.427
19.15,0.754,6.06,6.809,-1.768,1.585,-2.927
19.2,0.541,6.349,6.85,-0.915,4.268,-1.037
19.25,0.101,5.413,6.443,0.61,0.976,-3.72
19.3,0.575,6.383,6.737,-0.305,2.988,-2.134
19.35,0.326,5.583,6.828,-0.183,3.171,-2.256
19.4,0.649,5.179,6.725,-0.732,1.463,-2.866
19.45,0.232,5.626,6.644,-0.061,1.524,-1.28
19.5,0.639,5.839,6.756,0,1.89,-2.927
19.55,0.517,5.466,7.178,2.195,1.951,-0.671
19.6,0.22,5.962,6.931,-15.61,1.585,-2.012
19.65,0.34,6.414,6.864,-2.073,1.768,-2.805
19.7,-0.057,5.622,6.548,0.976,2.317,-0.366
19.75,0.041,5.856,6.807,-2.073,2.744,-3.659
19.8,0.436,5.476,7.202,2.012,1.402,-1.585
19.85,0.244,5.978,6.795,-0.732,1.707,-2.622
19.9,0.038,5.162,7.142,0,3.049,-2.134
19.95,0.271,6.053,6.776,15.305,2.195,-1.585
20,0.448,5.737,6.759,-0.854,2.134,-2.561
20.05,0.687,5.559,6.709,-0.366,2.317,-2.744
20.1,-0.017,5.2,6.986,0.244,2.561,-2.256
20.15,0.306,6.088,6.744,-0.427,2.012,-2.195
20.2,0.508,5.811,7.199,0.488,2.866,-1.89
20.25,0.438,5.775,6.965,-0.122,2.5,-2.317
20.3,0.694,5.758,6.802,-15.61,2.927,-2.073
20.35,0.223,5.794,6.764,-0.061,2.683,-2.134
20.4,0.244,5.665,6.914,0.183,2.622,-2.134
20.45,0.172,5.648,6.946,0.793,2.622,-1.89
20.5,0.577,5.911,6.874,0.061,2.683,-1.89
20.55,0.263,5.468,6.493,3.415,4.268,0.854
20.6,0.359,5.993,6.989,-2.805,4.695,-0.671
20.65,0.345,5.942,7.07,-3.78,3.78,-1.585
20.7,0.493,5.966,6.46,-4.024,3.841,-0.549
20.75,0.074,5.897,6.68,-2.5,3.659,0
20.8,0.522,6.249,6.45,-2.988,4.024,0.122
20.85,1.367,6.103,6.871,-4.146,4.268,0.793
20.9,0.01,5.653,6.879,1.951,5.183,0.122
20.95,0.06,6.091,7.233,1.22,3.841,1.159
21,-0.618,6.105,5.849,2.988,6.28,1.402
21.05,0.335,5.504,5.511,4.451,3.232,15.305
21.1,0.237,4.934,7.441,5.122,2.744,0.427
21.15,-0.333,5.152,6.941,4.512,5.671,1.646
21.2,0.266,5.234,7.01,11.037,2.195,15.488
21.25,0.515,4.803,6.23,9.451,1.585,-4.085
21.3,0.172,5.849,7.197,2.317,2.195,-1.098
21.35,0.8,5.691,6.51,-0.793,2.866,-0.915
21.4,0.223,5.66,6.582,-0.366,2.988,-1.463
21.45,0.433,5.681,6.615,0.427,2.744,-2.073
21.5,0.627,5.904,6.816,-0.427,0.793,-4.146
21.55,0.28,5.483,6.598,-0.549,1.951,-3.72
21.6,0.105,5.916,6.929,15.366,0.366,-5.854
21.65,0.728,5.902,6.919,15.488,2.5,-6.159
21.7,0.034,5.777,6.622,-2.805,0.915,-4.451
21.75,0.421,6,6.8,0.061,-15.488,-4.146
21.8,0.297,5.78,6.601,0.122,0.671,-3.11
21.85,0.424,5.543,6.5,-0.61,0.488,-4.207
21.9,0.268,5.976,6.577,-0.915,-0.793,-5.671
21.95,0.007,6.069,6.431,-1.524,-0.732,-6.829
22,0.577,5.861,6.838,0.793,1.341,-7.622
22.05,0.345,5.926,6.469,1.28,3.841,-2.195
22.1,0.833,5.997,6.402,-1.646,4.268,-3.659
22.15,0.168,5.296,6.653,-0.915,5.671,-2.927
22.2,-0.115,5.818,6.314,0.183,4.817,-5.427
22.25,0.541,6.208,6.879,-1.159,3.354,-2.195
22.3,0.338,6.002,6.862,-0.976,3.476,-1.463
22.35,0.486,5.842,6.574,-0.244,2.866,-2.378
22.4,0.278,5.875,7.195,15.549,2.683,-2.683
22.45,0.261,5.636,6.929,0.549,2.744,-1.768
22.5,0.232,5.703,6.68,0.305,2.988,-1.89
22.55,0.192,5.732,6.756,0.793,2.561,-1.89
22.6,0.383,5.95,6.85,-0.122,2.866,-2.012
22.65,0.318,5.713,7.039,0.061,2.927,-1.89
22.7,0.35,5.674,6.888,-0.061,2.866,-2.256
22.75,0.39,5.866,6.606,-15.305,3.354,-1.585
22.8,0.33,5.923,6.519,0.549,3.537,-0.366
22.85,0.247,5.983,7.001,0.122,3.354,-0.366
22.9,0.611,5.521,6.831,0.488,2.927,-1.707
22.95,0.469,5.78,6.857,15.549,2.683,-1.037
23,0.244,6.081,6.46,0.488,1.768,-2.012
23.05,0.256,6.132,6.812,2.073,2.439,-2.561
23.1,0.266,6.177,6.685,-15.427,2.622,-2.012
23.15,0.407,6.029,6.826,15.549,1.89,-2.317
23.2,0.515,5.906,6.651,0.549,2.683,-1.829
23.25,0.376,5.827,6.783,0.488,2.561,-3.049
23.3,0.299,5.938,6.828,0.061,2.866,-2.805
23.35,0.491,6.115,6.809,0.061,3.72,-1.585
23.4,0.275,5.521,6.697,2.195,2.744,-2.744
23.45,0.651,5.626,7.041,-0.427,2.195,-2.256
23.5,0.352,6.146,6.503,-0.122,1.341,-3.902
23.55,0.168,6.021,6.519,-0.854,2.805,-2.195
23.6,0.182,5.732,7.199,0.244,2.683,-2.439
23.65,0.491,5.883,6.687,-0.122,2.866,-1.646
23.7,0.292,5.818,6.742,0.122,2.439,-2.256
23.75,0.338,5.842,6.802,-0.183,2.561,-2.5
23.8,0.283,5.914,6.752,-15.549,2.256,-2.195
23.85,0.409,5.942,6.795,-0.122,2.683,-1.89
23.9,0.237,5.868,6.814,-0.244,2.805,-2.195
23.95,0.28,5.725,6.816,0.61,2.927,-2.134
24,0.412,5.856,6.838,-0.061,2.561,-2.012
24.05,0.383,5.906,6.689,0.122,2.927,-2.317
24.1,0.158,5.523,6.883,-0.244,2.561,-2.317
24.15,0.196,5.715,6.579,-0.122,2.5,-1.829
24.2,0.268,5.911,6.713,-15.549,1.951,-2.378
24.25,0.278,5.883,6.68,-0.305,2.622,-2.195
24.3,0.417,5.856,6.852,0.488,2.744,-2.256
24.35,0.158,5.957,6.632,0.671,2.378,-2.317
24.4,0.177,5.863,6.778,-0.488,2.317,-2.317
24.45,0.321,5.923,6.764,0.488,1.89,-2.927
24.5,0.362,6.117,6.704,-0.244,2.195,-3.415
24.55,0.548,5.933,6.723,-0.244,0.671,-4.756
24.6,0.711,5.95,6.804,-0.183,-2.988,-5.427
24.65,0.034,5.763,6.845,15.305,-4.817,-1.829
24.7,-0.304,6.153,6.395,-1.402,2.622,-0.976
24.75,-0.941,6.577,6.716,-2.256,-0.305,1.89
24.8,-0.706,5.923,5.523,-0.244,1.707,5.061
24.85,-1.42,5.274,8.296,-0.732,7.683,4.329
24.9,1.216,5.629,8.191,-2.439,9.329,7.256
24.95,-1.022,5.243,7.614,0.549,7.073,4.817
25,-0.311,5.643,7.999,-3.232,7.256,0.854
25.05,0.472,6.764,6.891,-4.573,11.037,1.524
25.1,1.216,6.278,7.81,-4.573,11.89,-2.439
25.15,1.262,5.914,7.046,-3.354,10.061,-4.268
25.2,2.095,5.655,8.624,-5.915,-0.305,-2.012
25.25,-0.62,5.167,5.08,-2.866,5.183,-1.463
25.3,2.239,5.066,6.981,-1.463,1.463,11.585
25.35,0.673,5.72,7.032,0.061,-1.89,-4.39
25.4,1.535,5.035,7.542,-3.049,8.171,-2.866
25.45,1.123,5.066,5.509,-9.207,3.293,-1.159
25.5,0.687,5.701,7.149,-5.61,7.378,-1.341
25.55,1.437,5.344,8.65,-4.207,0.793,-2.561
25.6,0.268,5.655,6.314,-2.439,4.268,-3.537
25.65,0.96,4.812,7.683,-4.268,6.402,-2.195
25.7,0.555,5.028,7.082,-7.134,9.634,1.341
25.75,0.014,5.789,6.946,-4.573,10.122,-0.122
25.8,0.816,5.346,6.876,-7.439,4.024,-4.024
25.85,0.723,5.267,7.125,-9.939,5.244,-3.171
25.9,-0.05,4.951,7.489,-7.195,8.232,-0.854
25.95,-0.543,5.504,6.965,-11.402,5,-2.683
26,0.347,5.344,6.958,-13.72,5.854,-2.683
26.05,0.285,5.476,7.46,-12.439,4.634,-1.28
26.1,0.041,4.786,7.369,-9.024,10.915,-4.878
26.15,0.086,4.381,7.468,-1.463,2.439,-3.78
26.2,0.419,4.855,7.408,-1.402,-1.768,-3.049
26.25,0.606,5.397,6.088,-12.378,-2.195,-5.305
26.3,0.414,5.088,6.732,-15.793,-2.988,-1.829
26.35,-0.043,3.591,6.132,-16.768,-1.098,3.537
26.4,-0.01,3.548,7.781,-8.171,-3.415,6.22
26.45,-1.233,5.456,7.274,-12.805,0.427,5.793
26.5,1.525,4.25,6.383,-11.89,2.439,7.134
26.55,0.996,4.64,7.812,-13.11,2.988,1.89
26.6,-0.555,4.475,6.278,-7.5,-14.634,-7.744
26.65,2.406,5.03,7.037,-5.976,12.378,14.939
26.7,-0.493,4.441,7.472,-14.146,-2.927,2.683
26.75,4.008,4.063,7.97,-9.756,-1.22,1.159
26.8,1.652,5.045,6.752,-12.683,2.744,-1.341
26.85,2.181,4.08,8.1,-11.341,-15.244,-4.573
26.9,-1.453,3.658,8.456,-18.049,-1.524,-6.159
26.95,-0.603,3.314,8.373,-8.963,3.232,-3.537
27,0.965,2.861,7.499,1.829,-1.28,-5.122
27.05,0.601,3.273,8.452,2.073,1.098,-6.707
27.1,0.565,3.859,7.776,-1.159,4.207,-3.659
27.15,0.702,3.208,7.515,-3.902,-6.524,-0.732
27.2,1.24,3.218,8.983,-12.012,1.037,9.207
27.25,0.876,3.409,8.655,-20.793,-3.902,1.646
27.3,2.361,3.134,6.349,-23.476,1.585,0.793
27.35,1.269,2.868,9.907,-18.902,-9.207,4.268
27.4,0.998,2.011,8.471,-13.049,2.866,15.488
27.45,1.654,3.436,7.752,-21.585,-1.524,0.427
27.5,0.187,2.895,8.023,-20.488,1.22,2.073
27.55,0.948,2.016,8.837,-19.573,1.159,1.768
27.6,0.529,2.179,8.327,-21.098,-4.756,-0.671
27.65,1.688,2.073,8.792,-16.707,2.561,2.927
27.7,1.8,1.563,8.052,-16.402,-4.939,0.122
27.75,1.561,2.203,9.328,-14.146,-5.122,-2.012
27.8,1.827,1.549,8.595,-14.207,-3.78,0.854
27.85,1.657,1.52,8.43,-16.037,-5.427,15.183
27.9,-0.117,0.134,9.632,-1.524,8.476,1.951
27.95,0.553,0.912,8.147,15.244,0.183,-2.134
28,1.97,1.192,8.557,2.622,1.402,-3.476
28.05,0.936,1.441,8.473,15.305,2.744,-4.329
28.1,1.125,1.563,7.98,1.28,1.463,-3.963
28.15,1.235,1.554,8.349,-1.159,3.537,-1.585
28.2,1.504,1.317,8.461,-0.244,4.512,-2.866
28.25,0.912,0.943,8.305,11.037,9.146,-1.341
28.3,1.884,1.298,8.231,13.11,6.037,-2.866
28.35,1.482,1.674,7.87,8.841,7.073,-1.402
28.4,0.244,1.908,7.827,5.122,-15,-1.28
28.45,2.77,2.083,9.459,2.988,1.951,-0.488
28.5,-0.242,1.899,7.482,9.512,0.488,-1.829
28.55,-0.599,2.94,8.849,6.585,-13.537,-0.671
28.6,2.37,2.093,7.36,3.598,3.537,-1.402
28.65,-0.101,1.602,9.191,2.195,-1.89,-1.524
28.7,1.391,1.602,9.313,8.902,3.049,-1.646
28.75,0.694,2.368,8.708,2.073,6.22,-2.5
28.8,1.367,2.591,8.054,9.756,-1.159,-1.768
28.85,1.827,1.511,7.312,3.902,-2.195,-1.159
28.9,1.156,2.875,8.207,2.378,4.756,-1.524
28.95,0.543,1.87,7.594,-0.732,-0.732,-2.5
29,0.666,1.915,8.629,-4.268,2.256,-1.463
29.05,0.891,2.176,7.563,-0.732,1.707,-2.134
29.1,1.228,1.767,8.384,-1.585,4.634,-1.28
29.15,1.604,1.645,8.875,4.756,8.841,-4.024
29.2,0.543,1.772,8.48,4.695,9.268,-4.451
29.25,1.223,2.373,7.702,7.256,5.732,-5.488
29.3,0.845,2.246,8.066,8.232,3.78,-2.805
29.35,-0.242,2.229,8.14,10.854,4.512,-3.598
29.4,2.602,2.339,7.843,14.573,12.256,-1.402
29.45,2.301,1.712,7.405,13.11,6.402,2.622
29.5,0.22,4.58,6.84,11.037,12.622,-2.195
29.55,1.29,3.974,5.181,10.427,6.524,-0.305
29.6,3.12,2.523,7.156,6.829,10.671,0.976
29.65,-0.656,2.725,6.792,12.866,7.012,3.049
29.7,1.018,3,9.445,10.427,0.915,15.122
29.75,1.166,2.361,6.692,14.268,10.183,-2.744
29.8,1.683,1.875,7.752,10.732,3.598,-0.061
29.85,4.705,2.289,8.193,9.024,6.768,-14.939
29.9,-1.202,3.302,9.179,7.988,1.402,-1.951
29.95,-0.268,3.663,8.545,2.378,1.28,-2.5
30,-0.122,3.95,7.511,1.768,2.378,-2.134
30.05,0.534,3.323,8.147,1.28,6.098,-1.707
30.1,-0.124,3.589,8.325,-1.89,5.549,-1.159
30.15,0.685,3.139,8.27,3.415,7.317,-3.72
30.2,0.965,3.474,8.313,13.171,1.463,-7.439
30.25,0.062,2.732,8.021,11.402,-15.61,-8.293
30.3,-1.812,4.322,7.841,11.037,3.72,-6.22
30.35,2.136,1.8,11.784,13.659,2.683,-3.293
30.4,2.547,4.506,8.27,8.537,10.427,-2.134
30.45,2.701,2.885,7.604,10.305,15.366,-6.159
30.5,-0.139,2.737,8.133,11.402,6.89,-3.232
30.55,0.151,2.971,8.866,7.805,4.756,-7.378
30.6,0.929,4.683,7.554,12.378,10.793,-3.354
30.65,0.206,4.571,7.973,4.451,1.341,-4.085
30.7,-0.371,3.1,9.282,8.354,1.22,-0.549
30.75,-0.055,4.872,6.057,7.744,-7.805,-3.11
30.8,0.481,5.739,9.996,8.72,1.951,-1.89
30.85,-0.283,2.878,7.932,9.146,-4.085,15.427
30.9,0.591,4.827,6.436,4.207,-0.122,0.488
30.95,0.512,4.602,7.348,2.073,3.476,0.366
31,0.512,4.456,7.573,1.89,3.171,-0.366
31.05,-0.096,4.662,7.755,0.427,5,0.061
31.1,0.563,4.025,7.104,-1.524,2.317,-1.037
31.15,0.314,4.3,7.482,-0.549,2.256,-2.5
31.2,-0.117,4.302,7.76,-0.305,2.744,-2.195
31.25,0.096,4.357,7.616,-0.183,1.707,-2.439
31.3,0.256,4.396,7.657,-0.183,2.561,-2.195
31.35,0.409,4.434,7.733,-0.488,2.073,-2.378
31.4,-0.318,4.654,8.092,1.89,2.378,-2.378
31.45,0.534,3.965,7.542,1.341,2.317,-2.134
31.5,0.23,4.137,7.532,3.78,3.902,-0.671
31.55,0.227,4.283,7.594,6.89,1.463,-3.293
31.6,0.359,4.149,7.626,3.049,3.171,-1.768
31.65,-0.16,4.664,7.477,1.89,6.463,1.341
31.7,-0.019,5.136,7.762,1.341,5.061,-3.171
31.75,-0.026,4.633,7.638,5.488,4.756,-14.695
31.8,1.566,2.969,7.056,4.451,6.646,-15.061
31.85,-0.127,4.345,7.544,4.573,5.122,-0.61
31.9,0.543,5.906,7.678,5.061,5.732,-14.817
31.95,0.127,4.829,7.992,2.256,4.024,-0.488
32,-0.014,4.319,7.468,2.866,2.988,-2.744
32.05,0.752,4.606,7.812,1.159,0,-2.988
32.1,-0.079,5.042,7.075,-1.341,1.951,-3.659
32.15,0.261,4.738,6.919,0.854,15.488,-5.61
32.2,0.175,4.875,7.235,-0.61,2.744,-2.195
32.25,-0.215,4.693,7.479,-0.244,1.829,-2.988
32.3,-0.012,4.53,7.558,0.305,2.5,-2.317
32.35,0.091,4.556,7.556,15.549,2.134,-2.439
32.4,0.05,5.047,7.207,-0.427,2.866,-1.341
32.45,0.302,4.669,7.173,0.305,2.622,-2.561
32.5,-0.069,4.81,7.626,-0.122,2.561,-2.012
32.55,0.29,4.846,7.614,0.183,2.805,-2.439
32.6,0.194,4.906,7.142,-0.488,2.988,-2.317
32.65,-0.108,4.614,7.324,-0.183,2.561,-2.439
32.7,0.122,4.772,7.321,-15.366,2.256,-2.439
32.75,-0.029,4.882,7.362,0.122,1.098,-4.634
32.8,0.239,4.855,7.41,0.488,1.829,-3.72
32.85,0.057,4.743,7.415,0.61,2.805,-2.073
32.9,-0.235,4.99,7.084,-15.488,2.988,-1.768
32.95,0.347,5.052,7.266,0,2.012,-1.829
33,-0.134,5.013,7.309,-0.183,2.866,-1.829
33.05,0.168,4.834,7.367,-0.122,2.561,-2.744
33.1,0.259,4.891,7.441,0.732,3.171,-2.683
33.15,0.244,4.858,7.408,0.427,1.646,-3.232
33.2,0.275,4.463,7.479,15.427,2.5,-2.805
33.25,0.096,4.472,7.132,0.915,15.549,-3.415
33.3,0.16,4.365,7.367,4.817,-15.244,-4.512
33.35,-0.12,4.456,7.317,8.902,0.305,-5.427
33.4,0.431,4.137,7.451,15.244,-3.293,-6.524
33.45,0.213,5.301,7.183,10.122,-1.768,-4.207
33.5,0.412,5.514,7.106,8.476,0.61,-3.049
33.55,-0.069,5.128,7.649,10.976,15.427,-2.256
33.6,0.436,5.049,7.068,12.317,4.146,1.646
33.65,1.154,4.583,7.228,8.232,1.829,1.463
33.7,1.324,6.534,6.462,7.012,1.341,-15.305
33.75,0.922,5.282,7.47,8.72,0.488,15.305
33.8,0.115,5.746,7.278,8.171,14.939,-2.195
33.85,-0.208,4.966,7.901,12.073,-14.634,-2.683
33.9,-0.603,6.483,6.68,8.354,1.89,-3.415
33.95,-0.017,5.804,6.108,6.22,6.037,2.073
34,1.64,6.306,6.196,3.537,8.354,3.049
34.05,0.019,5.873,7.065,2.927,3.354,-1.28
34.1,0.709,5.782,6.613,-0.061,2.439,-1.524
34.15,0.584,6.258,6.783,-0.671,2.988,-1.402
34.2,0.005,5.813,6.625,0.488,2.012,-3.963
34.25,0.113,6.026,6.606,-0.732,1.037,-3.293
34.3,0.158,6.223,6.452,1.037,1.89,-2.683
34.35,0.421,5.885,6.46,0,3.659,-0.549
34.4,0.366,5.713,6.747,-1.098,3.841,-0.366
34.45,-1.211,5.243,7.298,-1.159,0.488,1.89
34.5,0.424,5.543,6.335,-3.293,5.61,2.988
34.55,0.704,5.452,6.876,-1.098,3.598,3.171
34.6,0.16,5.866,6.586,-0.732,13.232,1.768
34.65,-0.251,5.485,8.203,-3.841,5.549,3.78
34.7,1.446,5.837,6.115,-4.146,3.232,4.512
34.75,-0.464,5.552,6.764,-1.951,9.207,15.549
34.8,1.001,6.223,5.198,-5.488,3.841,0
34.85,-0.86,5.827,6.955,0.061,4.695,-0.732
34.9,0.778,5.753,5.55,-5.122,6.098,-2.378
34.95,0.39,5.511,7.13,-2.927,4.756,-0.244
35,0.67,5.669,6.452,-15.366,2.317,-1.951
35.05,0.642,5.337,6.395,-0.793,0.427,-3.049
35.1,-0.809,5.89,6.503,-3.72,3.659,1.951
35.15,0.424,5.246,7.178,-4.878,3.171,5.183
35.2,2.102,5.243,6.879,-0.549,2.988,5.427
35.25,1.02,6.009,7.001,-8.476,4.756,15.122
35.3,0.227,5.337,7.523,-6.768,4.939,-4.695
35.35,-0.28,4.934,7.599,-5.488,5.183,-4.817
35.4,0.958,3.991,7.685,-7.683,2.378,-2.5
35.45,0.28,5.813,7.171,-5.244,3.963,-1.402
35.5,1.049,5.133,7.927,-5.122,9.695,-15
35.55,0.409,5.413,6.579,-10.061,4.39,-2.805
35.6,-0.45,4.662,7.111,-8.049,8.598,-2.134
35.65,0.5,4.75,7.262,-8.11,6.463,-2.195
35.7,0.251,4.705,7.125,-9.634,8.171,-0.976
35.75,-0.302,5.066,6.874,-13.354,12.073,2.927
35.8,0.448,4.348,7.556,-9.207,10.244,-3.537
35.85,0.026,5.001,7.446,-6.646,10.366,-5.305
35.9,-0.002,4.305,7.305,-5.671,1.22,-9.512
35.95,-0.438,4.403,7.803,-0.61,2.561,-2.5
36,0.122,4.475,7.669,3.537,4.207,-1.463
36.05,-0.11,5.488,6.967,-0.671,3.841,-1.524
36.1,-0.242,4.764,7.355,-1.159,2.195,-2.988
36.15,0.292,4.669,7.348,0.244,-3.476,-5.366
36.2,-0.352,5.057,7.005,-6.098,-5.244,-2.256
36.25,0.299,4.592,7.168,-11.768,-0.915,-1.22
36.3,-0.067,5.018,7.7,-14.085,3.11,-15.305
36.35,0.347,4.13,8.54,-13.902,-3.232,3.598
36.4,0.158,4.089,7.274,-12.744,-2.5,5.488
36.45,2.734,4.537,5.971,-9.207,13.902,5.122
36.5,0.543,5.045,8.243,-5.793,4.207,1.951
36.55,0.953,3.792,7.367,-7.195,7.378,-0.427
36.6,1.903,4.882,6.347,-8.598,9.268,-1.28
36.65,-0.737,4.46,8.198,-14.451,-13.659,13.598
36.7,0.591,3.757,9.112,-31.037,-12.927,-0.183
36.75,1.384,2.818,6.771,-14.695,-15.183,3.659
36.8,-1.068,4.458,5.871,-10,-3.293,13.11
36.85,0.642,3.275,8.662,-12.866,-1.28,-1.28
36.9,1.405,4.034,8.392,-3.963,4.329,-3.476
36.95,-0.022,3.56,8.487,-1.098,2.439,-3.293
37,0.555,3.144,8.198,2.012,3.049,-2.805
37.05,0.649,3.472,8.119,0.427,2.5,-3.293
37.1,0.508,3.649,8.023,0.732,3.171,-4.695
37.15,0.725,3.802,8.004,-1.585,1.89,-6.037
37.2,0.476,4.391,7.779,-11.402,-8.902,4.024
37.25,0.467,3.259,7.882,-11.829,-7.195,5.366
37.3,1.319,4.051,7.005,-20.427,-9.756,0.976
37.35,1.513,2.727,8.447,-17.927,-3.659,3.476
37.4,0.062,2.65,8.985,-19.451,-2.378,3.841
37.45,0.52,2.734,8.286,-18.232,-9.146,15.305
37.5,1.949,1.923,7.793,-17.622,-5.549,-5.244
37.55,0.407,3.079,8.528,-16.341,15.427,-0.427
37.6,0.807,1.834,7.429,-22.927,-0.854,-5.305
37.65,1.362,1.937,8.578,-18.415,1.098,0.793
37.7,1.48,1.899,7.879,-18.11,-5,-0.549
37.75,1.616,2.409,8.681,-18.841,-2.439,3.171
37.8,2.109,1.451,8.665,-20.366,-1.159,0.305
37.85,0.804,0.788,8.045,-11.829,-2.317,0.061
37.9,0.048,1.247,7.42,-15.976,-6.524,0.671
37.95,2.701,3.211,9.036,-9.085,4.329,0
38,1.46,1.305,8.468,15.549,15.305,1.951
38.05,0.855,1.719,9.213,1.585,4.451,0.671
38.1,2.284,1.441,8.193,0.305,-15.488,-5.305
38.15,0.838,1.204,8.291,-3.354,2.744,-1.585
38.2,1.245,1.542,8.337,-1.463,4.512,-2.5
38.25,1.961,0.812,10.096,10.244,11.22,-2.744
38.3,0.814,2.155,8.645,5.183,5.976,-1.829
38.35,0.852,2.765,8.358,7.012,7.317,-2.5
38.4,0.876,1.336,8.464,7.805,11.829,-4.451
38.45,2.049,1.097,8.583,6.707,3.171,-4.329
38.5,1.642,1.405,8.107,5.732,7.073,-3.598
38.55,0.797,1.221,7.755,5.549,3.232,-0.915
38.6,0.5,1.568,8.803,8.415,3.841,-0.305
38.65,2.033,1.937,7.271,3.841,6.402,-2.561
38.7,1.116,1.482,8.978,4.39,5,-2.012
38.75,2.179,1.889,7.944,4.573,2.866,-0.122
38.8,1.434,2.069,8.569,7.683,5.976,-1.951
38.85,2.533,2.854,7.029,-0.61,14.939,-1.28
38.9,3.069,2.073,8.839,9.695,-1.402,-2.317
38.95,0.579,2.804,7.714,0.305,-3.232,-2.439
39,0.699,1.346,8.574,0.366,-14.451,-3.415
39.05,1.516,2.409,8.255,-1.159,2.622,-2.805
39.1,1.851,1.994,8.452,3.537,9.146,-3.415
39.15,0.862,1.887,8.054,6.037,9.085,-4.512
39.2,1.274,1.731,8.674,7.317,10.366,-4.939
39.25,0.84,2.148,8.61,5.305,11.098,-6.159
39.3,-0.045,2.322,7.87,2.988,7.134,-4.146
39.35,0.922,2.179,8.356,10.244,6.463,-1.585
39.4,-1.25,2.935,7.482,9.39,15.549,15.427
39.45,0.922,3.048,6.273,8.841,15.61,-1.951
39.5,1.815,0.967,6.907,10.61,12.866,-1.402
39.55,1.65,2.253,7.113,9.756,10.244,-2.073
39.6,-3.105,2.217,8.928,10.366,22.012,-2.073
39.65,0,3.247,6.235,6.098,7.866,-2.195
39.7,-1.369,1.482,8.25,5.61,3.598,0.671
39.75,2.267,4.104,7.812,13.11,3.659,-0.915
39.8,-1.683,3.661,6.943,14.39,19.573,-1.098
39.85,0.627,2.622,9.225,9.817,-14.329,0
39.9,2.066,3.381,7.207,5.488,-4.39,11.585
39.95,-0.199,3.407,8.93,3.476,-6.22,-3.049
40,0.196,3.39,7.702,1.402,-0.244,-0.488
40.05,0.883,3.182,8.712,1.037,3.293,-1.159
40.1,-0.01,3.132,8.15,1.402,2.5,-2.195
40.15,-0.079,3.44,7.755,2.622,5,-3.537
40.2,0.486,3.572,8.25,5.122,11.524,-6.037
40.25,0.972,3.096,7.137,0,4.878,-8.171
40.3,0.01,2.105,8.064,5.244,8.902,-11.829
40.35,2.241,4.168,8.526,5,-5.732,-12.256
40.4,-1.305,3.189,7.942,10.549,-1.951,-6.646
40.45,1.36,1.717,6.914,9.756,6.89,-6.89
40.5,-4.422,5.918,7.752,13.415,6.646,-7.195
40.55,0.225,4.36,8.418,14.024,3.11,-4.451
40.6,-1.25,5.66,6.979,14.451,3.659,-4.634
40.65,-0.469,5.804,6.357,6.768,-13.659,-8.598
40.7,3.132,5.198,4.887,0.122,1.098,-1.707
40.75,-2.126,5.476,7.887,10.732,5,-0.183
40.8,-0.369,4.245,7.671,8.354,0.915,-1.037
40.85,2.703,5.502,6.026,9.329,8.537,-2.439
40.9,0.395,3.378,7.29,2.622,-5.427,0
40.95,-0.345,3.373,7.738,15.427,-2.256,0.671
41,0.079,4.14,7.13,2.561,-0.427,0.427
41.05,0.129,4.59,7.178,2.927,3.598,2.012
41.1,0.603,4.472,7.156,1.585,6.585,2.683
41.15,0.311,4.391,7.429,0.732,4.329,-0.366
41.2,0.347,4.286,8.064,-1.524,2.134,-2.988
41.25,0.065,4.199,7.726,-0.305,4.573,-0.671
41.3,-0.069,4.863,7.8,0.305,9.024,-1.646
41.35,-0.045,4.726,7.81,1.768,1.768,-2.5
41.4,-0.093,4.391,7.606,0.671,2.622,-1.768
41.45,0.01,4.3,7.829,15.488,3.293,-1.707
41.5,0.139,4.592,7.798,0.427,1.22,-3.232
41.55,-0.189,4.748,7.283,-0.305,2.378,-2.561
41.6,0.146,4.14,7.755,1.951,2.866,-0.427
41.65,-0.146,4.786,8.097,5,2.195,2.683
41.7,-0.455,4.166,8.267,6.28,4.085,0.488
41.75,0.577,4.288,7.812,1.951,5.488,-1.951
41.8,0.886,5.459,7.652,3.293,2.805,-0.732
41.85,0.196,4.286,7.738,1.159,5.549,-0.732
41.9,0.397,4.748,7.707,5.183,2.805,-2.439
41.95,0.079,5.174,7.774,4.573,4.573,-3.232
42,-0.268,4.262,7.441,3.598,4.512,-0.793
42.05,0.096,4.597,7.432,1.89,3.476,-1.341
42.1,0.165,4.831,7.556,3.293,3.476,-1.524
42.15,-0.038,5.478,7.192,-2.805,2.378,-3.049
42.2,0.421,4.659,7.281,-2.5,3.598,-2.195
42.25,0.532,4.398,7.35,0.915,2.378,-3.11
42.3,0.177,4.671,6.855,1.585,1.646,-2.683
42.35,0.668,4.671,7.468,15.244,2.195,-2.805
42.4,0.146,4.853,7.35,1.037,0.488,-4.817
42.45,0.029,4.958,7.429,15.122,3.598,-2.5
42.5,0.285,4.966,7.338,-0.915,2.805,-1.829
42.55,0.041,4.638,7.374,0.793,2.378,-2.683
42.6,-0.024,5.028,7.422,-0.305,3.659,-1.341
42.65,0.517,4.867,7.341,-0.427,1.707,-3.415
42.7,-0.019,4.803,7.436,0.549,3.049,-1.463
42.75,0.373,4.889,7.252,0.061,2.439,-2.622
42.8,0.189,4.652,7.362,15.488,2.561,-2.195
42.85,0.132,4.843,7.353,15.366,2.622,-2.134
42.9,0.002,4.841,7.623,-0.183,2.744,-2.561
42.95,0.002,4.626,7.329,0.244,2.439,-1.951
43,0.419,4.913,7.463,-0.976,0.671,-4.451
43.05,-0.079,4.764,7.343,-0.549,3.659,-0.976
43.1,0.074,4.889,7.324,0.488,2.317,-2.988
43.15,0.182,5.097,7.19,-0.732,2.5,-2.073
43.2,0.036,4.405,7.702,0.488,2.805,-2.439
43.25,0.223,4.867,7.262,-0.793,2.5,-2.134
43.3,0.189,4.889,7.647,-0.732,2.683,-2.012
43.35,0.024,5.045,7.384,-0.366,2.561,-2.195
43.4,0.232,4.791,7.46,-0.122,2.378,-2.317
43.45,0.029,4.688,7.494,0.183,2.683,-2.195
43.5,0.266,4.882,7.537,0.61,3.354,-2.317
43.55,0.426,4.738,7.453,0.366,1.829,-4.329
43.6,0,4.86,7.326,0.122,3.354,-2.683
43.65,0.093,4.76,7.111,1.098,1.585,-4.756
43.7,0.096,4.774,6.993,-0.732,1.951,-3.476
43.75,0.5,4.638,7.618,1.28,-0.488,-4.573
43.8,0.45,4.853,7.649,2.195,1.707,-2.744
43.85,0.433,4.401,7.118,8.049,0.549,-4.695
43.9,0.06,4.64,7.209,10.366,-2.012,-4.268
43.95,0.848,5.361,7.178,7.622,-1.28,-2.744
44,0.642,4.834,7.602,12.012,15.549,-1.28
44.05,0.405,4.997,6.718,9.268,2.561,-1.89
44.1,-0.139,5.593,6.534,9.085,3.598,-0.061
44.15,0.481,6.033,7.132,9.756,-1.585,-6.768
44.2,-0.33,5.464,6.591,8.659,14.695,-4.024
44.25,0.371,5.195,6.948,8.72,0.854,-0.183
44.3,0.026,5.119,7.207,5.61,1.707,-3.476
44.35,0.024,5.332,6.275,8.476,1.341,-2.744
44.4,0.335,5.71,7.336,9.451,4.024,-15.183
44.45,-1.516,5.423,6.493,12.927,4.512,3.049
44.5,0.199,5.301,7.106,6.89,5.854,4.146
44.55,0.18,7.815,5.392,2.073,4.024,-0.61
44.6,0.484,5.313,6.658,0.305,2.927,-1.89
44.65,-0.077,6.108,6.637,-1.341,1.524,-3.415
44.7,0.409,6.041,7.02,-2.195,3.232,-1.037
44.75,0.211,6.091,6.46,-0.915,2.195,-2.317
44.8,0.038,5.976,6.589,0,1.463,-2.927
44.85,0.419,6.124,6.378,-0.488,2.378,-3.171
44.9,0.752,5.868,6.814,0.61,0.549,-4.512
44.95,0.297,5.708,6.704,0.122,1.159,-3.232
45,0.453,5.94,6.788,0.61,2.012,-2.073
45.05,0.225,5.839,7.233,-0.915,0.427,-0.427
45.1,-0.508,5.741,7.362,-1.402,15.183,2.378
45.15,0.622,5.993,5.578,-1.22,2.195,2.317
45.2,0.223,6.4,5.274,-3.476,14.878,1.22
45.25,0.041,6.187,6.754,-1.098,8.841,1.159
45.3,-0.22,6.11,8.464,-4.39,-13.171,15.305
45.35,-0.967,5.634,6.153,-7.073,15.549,2.012
45.4,0.472,6.208,5.794,-4.024,3.354,1.463
45.45,-1.513,5.95,6.826,-0.427,-15.488,0.122
45.5,-1.12,6.158,6.242,-6.159,14.207,-0.915
45.55,1.286,5.794,6.536,-2.927,-15.122,-1.524
45.6,0.939,4.798,7.276,-2.256,-0.305,-3.902
45.65,0.761,5.672,6.167,-0.854,1.402,-3.72
45.7,0.543,5.789,6.601,0.244,2.073,-1.646
45.75,0.706,5.698,6.902,-0.061,3.171,-2.561
45.8,0.443,5.847,6.993,-15,2.561,-2.683
45.85,0.5,5.09,7.369,-0.61,3.598,-2.866
45.9,0.302,5.995,6.79,-0.305,4.024,-2.073
45.95,0.189,5.768,6.867,0.122,1.707,-2.256
46,0.536,5.578,6.981,-15.488,2.683,-2.622
46.05,0.431,5.59,6.902,-0.122,2.622,-1.951
46.1,0.022,5.55,7.156,-0.793,1.707,-3.11
46.15,0.491,5.974,7.705,-2.927,4.146,-1.707
46.2,-0.649,5.406,7.614,-6.89,3.11,0.549
46.25,0.244,4.846,7.582,-5.549,2.561,-2.134
46.3,0.819,5.404,7.889,-5.549,6.098,-3.049
46.35,0.431,5.363,6.527,-6.89,4.939,-1.89
46.4,0.45,5.291,7.07,-6.951,2.439,-2.317
46.45,0.215,5.083,7.252,-9.573,7.439,-2.927
46.5,0.187,5.227,6.33,-9.268,4.512,-3.841
46.55,-0.01,5.164,6.112,-13.598,5.549,-3.963
46.6,0.199,4.982,7.199,-11.402,6.22,-1.28
46.65,0.189,4.59,6.95,-11.524,9.451,-4.268
46.7,-0.091,5.229,7.468,-11.402,3.902,-5.732
46.75,-0.055,5.119,5.899,-12.317,6.28,-5.793
46.8,0.201,4.858,7.558,-8.537,9.085,-2.622
46.85,0.898,4.705,6.431,-9.085,11.463,-2.805
46.9,-0.134,4.348,8.176,0.244,0.854,-5.244
46.95,-0.232,4.709,7.786,0.793,1.89,-0.976
47,-0.084,5.65,7.149,1.159,3.78,-2.744
47.05,0.074,4.669,7.494,1.402,2.317,-2.683
47.1,0.072,4.721,7.669,1.28,2.439,-4.268
47.15,0.024,4.575,7.556,1.28,2.561,-3.232
47.2,0.177,5.042,7.35,-0.244,1.89,-2.805
47.25,-0.108,4.635,7.463,-0.488,2.622,-1.951
47.3,-0.115,4.712,7.8,1.159,3.78,-2.561
47.35,0.079,4.551,7.523,0.976,1.463,-3.659
47.4,-0.177,4.592,7.518,1.585,2.195,-2.927
47.45,0.457,4.846,7.003,-1.646,-3.293,-6.341
47.5,-0.271,4.446,6.981,-4.817,-7.073,-7.561
47.55,-0.419,4.599,7.776,-9.573,-4.878,-5.793
47.6,-1.456,4.089,6.962,-8.659,4.329,-0.732
47.65,-0.247,5.909,6.139,-11.22,4.451,-1.951
47.7,0.103,4.729,8.301,-13.293,-3.171,4.39
47.75,0.443,3.828,7.721,-12.378,-1.22,2.134
47.8,0.077,3.979,7.872,-5.122,4.634,-4.329
47.85,-1.18,4.851,7.819,-13.171,1.829,-4.695
47.9,0.366,3.915,7.913,-8.415,-2.317,5
47.95,-0.678,4.18,8.423,-19.817,-6.707,1.707
48,0.685,3.062,8.226,-10.122,0.366,1.28
48.05,-0.939,4.257,8.875,-0.549,-2.317,2.927
48.1,0.453,2.978,6.984,-11.22,-10.793,-2.439
48.15,2.665,3.297,8.765,-14.817,-12.378,-4.817
48.2,-0.187,3.663,9.16,-2.195,10.671,-3.049
48.25,0.474,4.034,8.387,-2.866,0.549,-3.72
48.3,0.658,3.716,7.805,0.061,0.732,-4.268
48.35,0.141,3.428,8.222,-6.22,-2.256,-3.354
48.4,3.467,4.152,8.504,-19.512,-5.183,6.951
48.45,0.608,3.247,8.023,-24.634,1.28,1.89
48.5,1.82,2.102,9.175,-15.671,-15.549,1.28
48.55,1.82,2.102,9.175,-15.671,-15.549,1.28
48.6,0.812,3.383,7.872,-19.39,-4.573,-1.341
48.65,1.14,2.866,8.859,-22.927,-1.89,15.244
48.7,0.974,2.626,8.507,-19.085,4.817,-1.098
48.75,0.79,1.939,7.932,-20.305,-5.793,1.28
48.8,0.017,1.367,9.459,-14.695,-0.305,2.5
48.85,1.575,2.255,8.011,-18.415,-2.866,2.988
48.9,2.15,1.932,8.796,-15.732,3.354,3.415
48.95,1.46,1.396,8.234,-14.207,-2.744,1.402
49,1.401,2.025,8.396,-11.463,-5.915,4.512
49.05,1.865,2.224,8.535,-31.037,-0.915,2.622
49.1,2.322,0.9,9.397,-5.366,12.5,3.72
49.15,1.927,1.568,8.564,1.098,-0.305,-4.085
49.2,1.616,1.353,8.322,-1.646,0.976,-4.695
49.25,1.329,1.247,8.473,-0.915,2.256,-3.171
49.3,1.094,1.674,8.552,-0.427,2.988,-2.012
49.35,1.365,1.446,8.444,-15.61,4.573,-2.073
49.4,1.228,0.974,8.454,4.878,5.427,-5.671
49.45,1.31,1.451,8.578,12.256,9.207,-4.085
49.5,1.286,1.798,8.392,16.646,8.78,-3.72
49.55,1.506,2.274,8.102,9.451,5.549,-0.976
49.6,1.963,2.346,8.224,8.902,-2.012,-2.378
49.65,0.941,2.368,8.179,0.915,1.524,-2.805
49.7,0.9,1.147,8.049,7.927,8.354,-3.293
49.75,-0.464,2.516,7.865,3.659,-7.012,13.72
49.8,1.578,0.792,9.522,-4.268,5.915,-2.195
49.85,-2.83,2.298,9.359,3.537,11.646,-3.963
49.9,1.099,1.968,8.825,8.171,2.073,-1.098
49.95,0.675,2.224,8.135,6.524,8.902,-2.866
50,1.743,1.829,8.368,5.854,10.305,-3.293
50.05,1.003,1.381,7.843,0.183,1.098,-0.793
50.1,0.848,2.854,8.198,14.451,0,-0.366
50.15,0.584,1.999,7.487,-3.232,2.378,-1.829
50.2,1.798,2.138,8.569,-15.305,3.415,-2.988
50.25,1.324,1.762,8.624,-4.939,2.866,-1.585
50.3,1.465,1.889,8.049,-3.415,3.293,-2.5
50.35,0.668,1.968,8.71,-0.793,3.598,-2.378
50.4,1.494,1.76,8.502,4.329,9.146,-2.134
50.45,1.482,2.071,8.511,7.073,9.207,-5.732
50.5,0.857,1.798,8.758,7.256,8.11,-6.768
50.55,1.027,2.27,8.775,5.061,6.159,-5.122
50.6,0.417,2.04,9.151,8.963,9.146,-4.634
50.65,1.01,1.798,7.53,12.134,14.817,-0.793
50.7,-0.601,3.658,5.825,15,9.695,1.159
50.75,1.207,2.744,7.918,14.634,0.854,-1.463
50.8,0.484,4.791,7.151,9.207,7.927,-15.244
50.85,0.941,3.541,6.393,10.61,6.707,15.488
50.9,-1.326,2.744,10.187,9.756,9.207,2.378
50.95,0.294,3.785,6.845,7.866,15.061,-4.085
51,2.579,3.318,8.662,18.598,11.22,14.573
51.05,1.314,1.437,8.985,9.756,7.134,-1.402
51.1,-0.115,1.513,11.073,11.159,15.915,1.524
51.15,-0.292,3.165,7.539,4.268,6.463,-1.098
51.2,1.204,2.133,7.875,4.329,2.256,-4.085
51.25,0.781,3.735,7.817,1.585,3.293,-3.537
51.3,0.582,3.62,7.805,-15,3.537,-2.5
51.35,-0.271,3.16,8.353,0.488,6.585,-1.646
51.4,-0.177,2.988,8.566,10.122,3.354,-5.732
51.45,-0.148,3.618,7.836,10.244,5.366,-6.524
51.5,0.546,3.587,7.721,11.585,-1.098,-6.768
51.55,-0.9,4.31,7.647,8.476,-3.415,-7.622
51.6,3.579,2.042,7.915,7.317,-13.659,-6.585
51.65,-1.338,3.309,8.641,9.329,0.061,-5.366
51.7,0.144,3.924,6.481,10.122,-1.037,-3.598
51.75,-0.074,5.198,5.789,14.451,-4.085,-1.646
51.8,1.18,4.216,7.226,9.268,-15.366,-5.732
51.85,0.622,3.278,9.843,12.195,3.476,-3.476
51.9,1.887,3.247,7.259,5,1.22,-5.549
51.95,1.365,5.454,8.978,10.366,4.207,12.134
52,-0.582,2.538,4.843,10.732,-5.549,-4.207
52.05,-2.725,3.97,8.064,1.402,7.561,-0.793
52.1,0.97,5.198,7.341,8.11,-2.256,-3.415
52.15,0.273,3.874,7.64,2.866,1.951,-0.061
52.2,0.297,4.994,7.506,1.463,-0.549,-2.439
52.25,0.409,4.187,7.312,0.915,0.976,-3.232
52.3,-0.074,4.623,7.381,-0.305,1.341,-2.5
52.35,0.041,4.721,7.47,-15.305,1.89,-3.659
52.4,0.211,4.334,7.767,0.122,2.805,-1.951
52.45,0.158,4.578,7.008,4.756,3.902,-0.854
52.5,0.057,5.164,7.683,2.073,3.171,-3.232
52.55,0.053,4.831,7.446,3.537,3.72,-0.915
52.6,0.311,4.001,7.24,2.378,4.756,0.549
52.65,-0.148,4.616,7.748,5.793,7.317,0.305
52.7,0.522,4.073,7.171,6.098,2.683,-4.146
52.75,-0.108,4.326,7.204,5.854,6.951,2.866
52.8,0.335,4.836,8.42,5.366,6.159,0
52.85,-0.18,4.563,7.398,5.061,7.317,2.012
52.9,0.326,5.136,7.575,2.134,7.866,0.183
52.95,-0.204,6.122,8.262,-3.293,1.768,-1.951
53,0.146,4.743,7.772,-1.768,3.598,-1.159
53.05,-1.063,4.889,7.678,1.89,2.744,1.829
53.1,-0.237,4.82,6.345,0.793,5.915,0.854
53.15,1.618,4.317,7.104,2.134,15.122,-6.646
53.2,0.139,4.776,7.288,0.488,2.195,-4.085
53.25,0.424,4.654,7.47,-1.28,2.378,-1.707
53.3,0.249,4.97,7.077,-0.305,1.768,-2.988
53.35,0.153,4.714,7.274,-0.549,3.293,-1.28
53.4,0.402,4.525,7.384,-0.61,2.561,-2.561
53.45,-0.132,5.126,7.274,15.061,2.5,-1.951
53.5,0.247,5.052,7.482,-0.549,2.744,-1.951
53.55,0.086,5.011,7.314,-15.549,2.744,-2.317
53.6,0.151,4.762,7.226,-0.183,2.805,-2.5
53.65,-0.12,4.784,7.599,-0.244,2.866,-1.829
53.7,0.153,4.599,7.503,15.488,2.378,-2.195
53.75,0.031,4.626,7.216,0.488,1.524,-2.866
53.8,0.352,4.855,7.266,0.854,0.793,-4.573
53.85,-0.012,4.865,7.211,-0.061,2.988,-1.463
53.9,0.036,4.997,7.345,-0.366,2.256,-2.744
53.95,0.215,4.788,7.381,0.549,3.049,-1.524
54,-0.089,4.822,7.434,0.305,2.866,-1.951
54.05,0.069,4.982,7.3,-0.061,2.683,-2.561
54.1,0.062,5.387,7.266,-0.183,2.744,-1.951
54.15,0.029,4.717,7.422,1.707,2.195,-4.268
54.2,0.603,4.705,7.666,3.659,3.902,-3.232
54.25,0.347,4.633,7.209,7.195,5.061,-0.793
54.3,0.735,4.997,7.587,10.488,-4.39,-6.463
54.35,0.158,5.128,7.434,10.061,0.488,-3.841
54.4,-0.022,5.282,6.84,6.646,5.366,0.244
54.45,0.249,5.586,7.657,12.256,-0.366,-1.22
54.5,-0.192,6.23,6.404,9.695,0.366,-3.293
54.55,0.397,5.174,7.288,8.78,1.585,1.768
54.6,-0.302,5.691,7.647,11.646,-1.098,-4.024
54.65,1.061,5.705,6.922,8.72,2.012,-0.244
54.7,0.038,5.229,7.377,11.22,15.488,-2.317
54.75,0.23,5.229,7.384,8.72,-15.183,-2.073
54.8,0.16,5.741,7.262,11.22,15.427,-4.207
54.85,-0.101,5.231,7.3,10.732,1.463,-1.463
54.9,-0.302,7.693,5.832,1.646,4.817,-1.707
54.95,0.302,5.519,6.912,1.098,2.317,-2.927
55,0.232,5.703,6.596,0.366,2.866,-2.378
55.05,0.28,5.825,6.816,-1.524,5.854,2.439
55.1,0.16,5.705,6.773,0.732,1.28,-2.988
55.15,-0.127,5.942,6.823,1.159,2.439,-1.89
55.2,0.201,5.595,6.847,-15.549,1.28,-3.232
55.25,0.156,5.895,7.178,0.854,2.134,-1.89
55.3,-0.407,5.806,7.288,-0.976,1.768,1.951
55.35,1.171,7.032,7.966,-1.098,3.841,4.024
55.4,0.153,5.083,6.721,-1.585,5.61,4.207
55.45,0.917,5.763,7.314,-4.756,9.146,3.415
55.5,1.214,5.555,5.409,-2.5,1.524,2.805
55.55,-1.53,5.054,7.894,-3.171,14.512,1.585
55.6,2.361,5.612,6.357,-4.146,0.305,0.61
55.65,0.881,5.1,5.195,-1.768,4.695,-2.683
55.7,4.044,6.079,7.59,-7.561,-12.012,-2.012
55.75,-0.393,5.586,6.91,-0.61,2.378,-3.049
55.8,0.026,5.571,7.156,0.549,2.988,-1.585
55.85,0.28,6.088,6.723,1.037,4.817,0.671
55.9,0.189,5.708,6.8,-1.524,6.524,15.244
55.95,0.204,5.593,7.403,-15.488,3.476,-0.915
56,0.402,5.394,6.981,-0.366,2.561,-2.378
56.05,0.352,5.37,7.039,0.427,2.317,-2.439
56.1,0.208,5.748,6.718,-0.61,3.78,-1.829
56.15,0.702,5.289,6.804,-1.402,15.366,-0.915
56.2,0.781,5.382,7.365,-1.707,4.39,1.524
56.25,-0.63,6.342,6.704,-8.049,-13.78,3.049
56.3,0.584,6.1,6.194,-6.585,3.171,0
56.35,0.589,5.545,6.926,-5.305,5.732,-1.951
56.4,-0.089,4.951,7.369,-4.085,1.28,-3.049
56.45,0.103,5.552,6.369,-8.598,10.427,-0.427
56.5,-0.362,4.681,6.807,-5.732,6.341,-2.805
56.55,0.024,5.286,6.699,-9.207,5.549,-1.159
56.6,0.721,5.198,7.197,-10.366,3.72,-4.634
56.65,-0.316,5.119,7.432,-8.11,4.878,-3.841
56.7,0.235,4.532,7.834,-7.683,3.72,-3.049
56.75,-0.007,4.47,7.527,-9.634,4.573,-4.756
56.8,-0.354,4.635,6.986,-13.049,6.341,-1.22
56.85,-0.261,4.793,7.558,-8.415,13.598,-1.768
56.9,-0.022,5.08,7.326,-7.988,11.341,-5.305
56.95,0.017,4.444,7.204,-1.829,2.195,-4.146
57,-0.098,4.336,7.626,2.561,2.927,-3.232
57.05,-0.148,5.2,7.317,2.378,2.073,-3.476
57.1,0.204,4.927,7.223,0.183,2.683,-2.866
57.15,-0.041,4.709,7.391,0.671,1.951,-2.073
57.2,-0.101,5.035,7.456,-4.451,-4.817,-4.878
57.25,-0.067,4.939,7.128,-9.268,-2.866,-7.988
57.3,0.129,5.222,5.789,-13.049,-0.305,-6.707
57.35,-0.907,4.192,7.997,-6.402,1.768,-13.902
57.4,1.477,4.46,6.941,-13.537,-4.512,2.5
57.45,0.302,3.575,6.517,-12.683,-4.146,2.195
57.5,0.215,4.199,9.74,-8.841,15.244,-3.598
57.55,-1.279,4.429,9.467,-6.037,4.329,-0.671
57.6,-0.098,3.29,7.017,-12.317,-12.256,1.341
57.65,-1.645,4.69,6.594,-6.585,7.439,-2.622
57.7,-0.369,4.398,8.993,-13.598,-7.317,0.305
57.75,0.845,4.63,7.738,-31.098,2.561,4.146
57.8,3.11,3.589,7.175,-30.732,-0.488,-1.463
57.85,1.152,2.586,8.478,-10.854,-5.732,-0.915
57.9,0.848,3.843,7.233,-0.854,-5.793,-4.268
57.95,2.009,3.244,8.519,3.171,3.293,-6.159
58,0.857,3.148,8.305,1.402,2.927,-1.037
58.05,0.603,3.493,7.422,-5.427,-5.793,-0.244
58.1,-0.055,3.395,7.772,-17.134,-9.268,0.915
58.15,1.963,3.215,8.25,-14.329,-10.549,1.463
58.2,1.834,3.498,7.585,-18.963,-4.939,2.866
58.25,0.697,2.131,8.349,-22.134,-5.549,14.573
58.3,0.429,2.349,7.695,-17.744,-4.634,0.61
58.35,0.781,2.777,8.684,-17.317,-15.61,1.22
58.4,0.9,2.971,8.322,-17.195,0.366,1.585
58.45,1.942,3.666,7.97,-25.854,-0.366,-1.098
58.5,-0.931,1.073,7.587,-20.122,-5.305,-6.951
58.55,0.735,1.314,8.133,-18.232,-2.195,-4.878
58.6,0.977,1.53,8.021,-18.11,-2.561,1.098
58.65,1.496,1.654,7.796,-13.537,4.756,4.085
58.7,1.978,1.458,8.756,-16.159,-3.841,2.256
58.75,1.283,1.7,7.858,-0.305,-0.427,1.646
58.8,0.57,0.443,9.953,-6.707,15,2.744
58.85,2.442,1.65,7.884,-3.78,4.024,-2.683
58.9,2.267,2.037,10.281,-0.549,3.537,-3.171
58.95,1.097,1.875,8.138,-0.915,1.951,-3.415
59,0.766,1.329,8.648,15.366,-0.305,-3.902
59.05,1.192,1.07,8.416,-0.366,1.707,-3.171
59.1,1.386,1.207,8.552,15.366,2.073,-2.805
59.15,1.24,1.188,8.404,1.524,2.805,-2.439
59.2,1.341,1.259,8.768,-15.61,4.756,-2.5
59.25,1.168,1.475,8.356,6.951,8.78,-3.232
59.3,1.137,2.21,9.172,8.537,8.78,-3.415
59.35,2.523,1.774,7.786,6.768,14.39,-5.488
59.4,-0.632,2.598,8.169,3.232,4.085,-3.232
59.45,1.006,1.274,8.1,4.329,6.89,-1.22
59.5,1.006,1.812,8.839,6.829,7.378,-2.805
59.55,0.733,2.27,8.272,4.329,8.049,-1.951
59.6,1.101,0.948,8.514,7.073,12.195,-2.805
59.65,1.803,1.152,9.282,4.756,5.976,-3.11
59.7,1.068,2.528,7.748,7.073,3.476,-1.89
59.75,1.98,2.023,9.246,6.28,-1.524,-1.829
59.8,0.627,2.186,8.794,7.073,6.646,-2.378
59.85,2.365,2.136,7.86,1.89,-14.634,-3.171
59.9,1.209,2.54,7.705,2.317,-3.78,-1.524
59.95,0.467,0.95,8.387,0.549,-0.183,-15.549
60,1.099,2.006,7.597,-1.341,3.78,-2.073
60.05,1.36,1.693,8.442,0.732,5.61,-2.195
60.1,1.12,1.937,8.66,2.561,9.268,-3.354
60.15,1.642,2.066,8.504,6.768,8.049,-4.939
60.2,0.606,1.832,8.993,9.756,7.378,-5.305
60.25,0.01,2.073,8.011,11.524,9.939,-1.22
60.3,0.472,2.978,8.468,12.622,9.878,-1.524
60.35,2.703,1.97,9.649,16.28,8.72,0.793
60.4,-1.441,3.194,7.111,9.573,6.037,-1.829
60.45,0.9,5.686,5.397,11.037,3.415,-15.427
60.5,-2.227,2.157,10.774,26.463,10.244,1.707
60.55,3.151,2.377,9.697,12.439,10.305,2.805
60.6,1.963,2.978,7.494,12.561,28.476,0.854
60.65,2.899,3.675,7.977,12.439,11.707,14.695
60.7,1.077,2.284,7.633,10.305,10.61,-1.768
60.75,2.734,3.587,7.321,10.488,8.598,-3.963
60.8,3.412,3.587,9.131,8.902,6.646,-1.951
60.85,-1.511,3.692,5.837,2.561,4.024,-1.22
60.9,1.611,4.106,8.03,0.671,0.976,-3.354
60.95,0.476,2.851,9.141,5.305,5.915,-5.976
61,-0.788,3.783,7.173,6.768,-3.902,-9.634
61.05,-1.398,2.844,8.301,15.183,-3.598,-5.915
61.1,2.99,2.337,6.371,10.671,7.012,-3.659
61.15,-1.882,4.18,7.343,7.439,14.817,-5.488
61.2,0.318,3.247,8.701,12.378,2.744,-2.378
61.25,-2.033,4.752,6.931,29.39,-2.866,-4.024
61.3,3.534,4.034,6.39,8.11,-3.902,-2.012
61.35,-0.074,2.459,7.661,12.988,3.902,-4.085
61.4,-1.214,3.73,6.033,11.524,-10.671,-4.817
61.45,-0.991,4.152,6.934,6.524,15,-4.817
61.5,-0.986,4.312,7.86,11.951,14.329,-3.476
61.55,-0.991,3.862,7.111,8.415,-2.134,-4.085
61.6,0.436,4.029,6.4,6.098,15.488,13.963
61.65,0.481,5.368,6.457,3.171,13.537,1.037
61.7,-0.266,3.931,8.049,-3.659,15.488,2.195
61.75,0.757,4.901,7.568,-1.159,6.402,1.646
61.8,0.536,4.887,7.575,2.683,1.585,-0.854
61.85,-0.146,5.064,7.578,15.427,1.037,-2.378
61.9,0.39,5.037,7.69,-2.927,2.256,-3.354
61.95,0.362,4.164,7.887,-1.159,2.5,-2.256
62,0.419,4.525,7.659,0.244,2.988,-1.524
62.05,0.007,4.566,7.468,15.366,2.5,-2.073
62.1,0,4.448,7.673,-0.122,2.683,-2.012
62.15,0.407,4.8,7.429,-1.098,2.622,-2.012
62.2,0.12,4.422,7.298,1.646,1.28,-2.866
62.25,0.069,5.272,6.986,2.073,2.378,-1.463
62.3,0.158,4.695,7.956,1.951,3.598,-1.341
62.35,0.34,3.826,7.104,6.707,5.549,-1.707
62.4,0.429,4.286,8.009,6.829,2.378,-1.159
62.45,0.338,4.602,7.391,1.402,2.927,-1.28
62.5,0.077,4.987,7.64,5.366,5.488,1.89
62.55,0.692,4.065,7.963,0.854,2.927,-15.427
62.6,-0.426,4.824,7.027,2.622,3.902,0.305
62.65,-0.16,4.932,7.652,2.134,9.146,-0.061
62.7,0.022,4.915,7.108,-11.463,6.646,2.256
62.75,1.489,5.006,7.357,5.061,5.305,0.793
62.8,0.713,5.564,7.499,-1.89,0.976,-2.866
62.85,0.393,4.843,7.87,-0.427,2.134,-1.524
62.9,-0.043,5.004,7.779,0.305,1.829,-1.585
62.95,0.35,4.477,7.25,1.098,0.671,-3.841
63,0.28,4.745,7.226,-0.793,1.89,-2.317
63.05,0.084,4.561,7.405,15.366,1.524,-3.171
63.1,0.113,4.733,7.151,0.854,3.476,-4.268
63.15,-0.055,5.049,7.47,-0.244,2.134,-2.5
63.2,0.261,4.542,7.36,1.037,1.951,-3.171
63.25,0.108,4.7,7.36,-0.061,2.134,-3.598
63.3,-0.153,4.887,7.142,-0.732,3.232,-1.402
63.35,0.283,4.367,7.293,0,2.012,-2.439
63.4,0.397,4.662,7.403,-15.61,2.805,-2.195
63.45,0.273,5.001,7.245,-0.305,2.683,-2.134
63.5,0,4.717,7.214,-0.671,2.439,-2.317
63.55,-0.204,4.82,7.209,0,2.561,-2.317
63.6,0.165,4.748,7.647,0.427,2.439,-2.744
63.65,0.438,5.456,7.341,-15.427,2.805,-2.073
63.7,0.34,5.236,7.24,0.671,1.768,-2.988
63.75,0.017,4.664,7.412,-0.305,2.988,-1.89
63.8,0.201,4.633,7.547,-15.488,2.195,-2.927
63.85,0.043,4.884,7.343,-0.366,2.866,-1.89
63.9,0.024,4.776,7.317,0.061,2.317,-2.439
63.95,0.18,4.618,7.405,0,2.439,-2.378
64,0.139,4.616,7.427,-0.549,3.11,-1.89
64.05,0.136,5.04,7.405,-0.122,2.134,-2.378
64.1,0.206,4.887,7.223,0.244,2.134,-2.073
64.15,0.443,5.136,7.223,-0.061,3.049,-1.829
64.2,0.666,4.944,7.602,2.5,3.841,-2.805
64.25,-0.065,4.743,7.319,8.293,0.61,-3.476
64.3,0.409,4.676,7.432,10.854,-1.28,-6.098
64.35,-0.318,4.865,6.871,12.012,0.793,-2.988
64.4,0.292,4.616,7.609,12.988,15.244,-1.89
64.45,0.086,5.045,6.764,11.098,-0.305,-3.415
64.5,0.876,5.468,7.099,9.268,2.439,0.366
64.55,-0.836,6.103,7.252,8.72,4.451,2.988
64.6,0.029,6.065,6.792,8.232,2.073,14.634
64.65,0.192,5.052,6.855,7.317,3.537,1.463
64.7,0.151,5.389,6.069,10,3.963,-1.951
64.75,0.855,5.116,6.536,9.878,0.488,-0.854
64.8,0.39,5.373,6.91,10.61,-0.915,-2.988
64.85,-0.378,5.885,7.324,10.915,-1.524,-2.744
64.9,0.215,6.61,6.586,4.756,4.085,-0.305
64.95,-0.06,6.189,6.673,0.549,3.659,2.134
65,0.043,6.23,6.869,2.073,8.171,7.439
65.05,-0.879,6.479,5.538,14.39,6.037,0.61
65.1,0.065,5.866,6.527,-0.976,0.488,-2.988
65.15,0.038,5.861,6.74,0.366,3.354,-1.829
65.2,0.898,5.914,6.44,15.549,-0.671,-4.695
65.25,-0.371,5.763,6.783,-15.488,2.195,-1.098
65.3,0.182,6.086,6.151,-2.073,2.683,2.195
65.35,-0.227,6.06,6.548,-2.561,5.549,1.341
65.4,1.408,5.89,5.875,-1.28,3.171,4.024
65.45,1.334,5.466,8.466,0.976,2.134,3.354
65.5,1.331,6.184,7.444,-3.293,1.098,2.927
65.55,-0.218,6.989,4.652,-4.634,0.915,1.22
65.6,0.283,5.346,7.942,-0.61,2.256,-1.463
65.65,-1.125,5.981,6.653,-4.756,4.024,-1.829
65.7,2.057,5.739,6.347,-5.915,11.22,-15.122
65.75,-0.196,5.966,7.638,-2.622,11.341,-3.902
65.8,0.168,5.116,7.223,-0.854,4.817,-4.329
65.85,0.728,6.404,6.409,-4.939,13.841,1.951
65.9,2.351,5.231,7.252,-11.159,9.329,-0.366
65.95,0.002,5.418,7.417,-9.085,6.585,-2.5
66,0.242,5.504,6.847,-5.488,2.5,-2.744
66.05,0.441,5.452,6.9,-6.159,5,-6.768
66.1,-0.196,5.799,7.242,-5.671,6.037,-6.463
66.15,0.809,5.255,7.719,-8.415,3.902,-4.085
66.2,1.587,5.646,6.244,-8.415,3.537,-4.207
66.25,0.469,4.942,7.803,-7.5,4.146,-3.72
66.3,0.711,4.822,6.503,-10.549,2.256,-1.524
66.35,0.136,4.855,7.195,-8.354,7.5,-4.024
66.4,0.268,4.633,7.594,-9.695,4.756,-3.232
66.45,0.369,5.452,7.69,-11.159,3.72,-5.488
66.5,-0.283,4.848,7.53,-11.341,6.22,-2.927
66.55,-0.101,4.274,6.919,-8.841,10,-5
66.6,0.242,4.592,8.478,-2.317,3.354,-4.695
66.65,-0.079,4.8,7.898,2.195,4.146,-3.476
66.7,0.175,4.879,7.101,-0.122,2.622,-2.744
66.75,0.402,4.58,6.687,-1.159,-4.207,-4.878
66.8,-0.108,4.506,6.776,-4.024,-6.037,-6.341
66.85,0.249,4.549,7.994,-6.89,-8.476,-6.707
66.9,0.867,4.566,6.598,-7.134,-15.366,-3.598
66.95,-0.589,4.817,6.67,-0.305,-4.939,0.244
67,0.85,4.8,7.156,-12.805,-2.988,3.476
67.05,0.469,4.508,7.568,-13.171,14.329,5.976
67.1,0.187,3.51,7.278,-8.415,3.963,0
67.15,0.838,3.421,8.588,-4.512,-15.549,-1.22
67.2,-1.142,4.367,7.298,-11.098,-1.098,-0.61
67.25,1.659,3.62,8.231,-11.829,11.524,-1.22
67.3,-0.438,3.893,8.461,-11.951,13.232,1.524
67.35,1.561,3.187,6.804,-18.171,-7.439,3.476
67.4,1.719,2.521,8.291,-9.573,3.476,-15.488
67.45,-1.82,2.966,8.116,-10.427,-3.902,-3.171
67.5,0.651,3.445,7.578,-5.61,10.061,-4.329
67.55,0.266,3.397,7.422,-0.366,-0.732,-6.341
67.6,0.646,3.733,7.805,-2.012,-1.098,0.61
67.65,0.57,4.336,7.525,-15.854,-10.183,0.854
67.7,2.203,3.778,7.429,-22.195,-5.183,1.524
67.75,0.852,2.538,7.748,-21.951,-3.841,-3.354
67.8,-0.024,2.035,8.839,-20.549,-6.585,1.707
67.85,-0.749,1.841,8.847,-18.232,-5.793,2.744
67.9,0.196,2.617,8.004,-17.195,-0.61,0.183
67.95,1.049,2.708,8.15,-19.817,-6.402,-2.195
68,1.748,1.542,8.025,-15.061,1.463,-0.61
68.05,0.637,2.591,7.542,-22.988,-5.427,-3.11
68.1,1.298,1.997,9.275,-14.512,-2.683,-1.951
68.15,1.07,1.231,8.349,-0.671,-15.549,3.841
68.2,1.75,1.925,7.786,-18.232,-0.061,3.963
68.25,2.478,1.542,8.744,-13.659,-2.561,1.646
68.3,0.587,1.173,8.32,-17.622,-0.915,0.61
68.35,0.814,0.577,9.867,-1.951,9.451,0.671
68.4,1.901,1.003,8.897,0.915,3.11,-1.402
68.45,2.703,0.778,8.78,0.183,2.683,-3.476
68.5,0.668,0.74,8.459,1.402,4.207,-4.146
68.55,1.099,0.991,8.672,2.134,1.463,-4.207
68.6,1.42,1.532,8.241,0.61,2.5,-2.561
68.65,1.609,1.393,8.485,-0.732,2.805,-1.585
68.7,0.948,1.173,8.684,-0.366,6.22,-0.549
68.75,1.611,1.446,8.689,3.049,4.451,-1.159
68.8,1.384,1.618,7.848,-0.976,2.683,-3.11
68.85,1.025,0.752,7.815,3.354,3.902,-3.232
68.9,1.867,2.155,8.133,5.244,5.61,-2.134
68.95,0.967,0.972,8.562,9.817,10.976,-3.78
69,-0.105,2.116,7.894,4.329,1.341,-3.232
69.05,2.535,1.271,8.916,7.134,7.195,-2.805
69.1,1.446,1.678,7.8,3.841,-1.89,-2.805
69.15,1.882,1.417,8.528,6.402,1.585,-2.073
69.2,1.791,1.877,8.502,3.78,8.78,-1.768
69.25,1.803,2.157,7.709,4.207,3.537,15.122
69.3,1.556,2.172,8.995,7.317,8.049,-1.585
69.35,1.815,1.856,8.143,6.585,-1.28,-3.049
69.4,-0.407,1.935,7.903,9.146,-1.037,-1.646
69.45,1.877,2.109,8.068,4.268,0.244,15.488
69.5,1.211,1.793,8.945,5.366,7.5,-1.585
69.55,1.58,1.611,7.793,1.22,5.122,-1.098
69.6,2.842,1.891,7.453,5.122,9.756,-1.768
69.65,1.884,2.425,7.824,-0.61,8.78,-1.768
69.7,1.314,2.035,8.641,5.976,10.549,-2.622
69.75,1.75,2.15,8.535,4.817,11.524,-3.598
69.8,0.893,1.82,8.025,5.488,10.915,-4.573
69.85,1.02,2.219,8.408,10.305,7.195,-1.524
69.9,1.243,2.176,9.699,0.122,6.524,-1.341
69.95,-1.674,2.255,7.551,11.646,9.512,-2.195
70,0.266,1.616,9.9,10.183,10.244,15.305
70.05,-1.312,2.023,9.91,12.622,13.049,1.829
70.1,-2.38,1.082,8.198,12.683,13.354,-1.829
70.15,2.308,1.729,8.873,12.073,13.72,-15.366
70.2,-1.322,3.833,5.401,10.122,0,-4.268
70.25,0.68,2.99,8.43,13.598,9.634,-2.866
70.3,0.591,1.767,8.174,11.524,11.098,-1.829
70.35,-1.559,3.029,8.344,10.61,4.512,-1.341
70.4,0.73,2.389,8.538,10.488,9.695,-4.39
70.45,-0.438,2.677,7.163,5.488,4.024,-2.256
70.5,-0.05,2.648,9.098,4.695,0.793,-2.805
70.55,0.247,3.27,7.434,1.707,0.854,-4.451
70.6,0.215,3.29,8.176,0.671,2.134,-4.024
70.65,0.024,3.041,8.653,0.915,5,-2.5
70.7,0.618,3.203,8.167,5.183,8.537,-6.28
70.75,1.183,3.084,8.823,5.793,2.561,-7.317
70.8,0.888,2.84,7.992,9.207,-0.305,-9.695
70.85,-2.885,4.475,8.112,7.622,0.793,-9.39
70.9,1.425,2.413,5.547,9.268,7.805,-6.707
70.95,2.289,2.626,9.258,8.354,-1.341,-8.72
71,-0.797,3.074,9.041,12.744,13.293,-4.817
71.05,1.724,3.836,8.021,12.622,15.427,-0.549
71.1,-2.758,3.958,9.668,12.927,-15.061,-7.561
71.15,-0.819,4.152,8.507,12.073,-5.366,-3.476
71.2,-1.642,4.118,7.262,8.72,2.317,-4.634
71.25,-1.595,5.423,7.003,6.28,3.659,-8.659
71.3,0.01,5.188,5.646,9.146,-13.963,-5
71.35,-0.845,4.458,5.827,7.988,5.61,-0.061
71.4,-0.429,5.241,7.25,1.951,-2.378,-1.402
71.45,1.324,5.246,6.246,7.073,-0.366,1.098
71.5,0.053,4.776,7.573,4.512,2.683,1.22
71.55,0.472,4.53,7.664,2.744,4.085,-15.61
71.6,-0.187,4.836,7.163,-14.207,3.963,-1.28
71.65,0.357,4.499,7.666,-0.793,2.988,-2.073
71.7,0.053,4.573,7.74,0.061,1.585,-2.744
71.75,0.318,4.389,7.635,-0.549,3.232,-2.134
71.8,0.249,4.583,7.925,-15.61,2.012,-2.378
71.85,0.017,4.515,7.451,-0.122,3.476,-2.073
71.9,0.163,4.527,7.3,-15.61,2.927,-2.378
71.95,0.019,4.513,7.432,15,2.317,-2.622
72,0.105,4.539,7.386,0.61,2.378,-3.293
72.05,0.201,5.049,7.489,1.463,1.28,-2.622
72.1,-0.041,4.137,7.53,2.378,3.78,-0.183
72.15,-0.144,4.312,6.991,4.939,1.402,-3.598
72.2,0.189,4.305,7.269,4.573,3.902,-0.732
72.25,0.249,4.793,7.446,2.744,3.78,-2.073
72.3,-0.223,4.657,8.016,4.207,7.195,1.159
72.35,-0.057,5.327,7.369,2.805,2.744,-0.305
72.4,-0.613,4.808,7.762,2.561,2.134,-3.232
72.45,0.144,3.9,7.207,5.915,6.646,15.427
72.5,0.05,4.846,7.8,6.159,7.5,14.756
72.55,0.328,4.855,7.42,5,5.366,-0.915
72.6,0.397,5.296,7.312,5.488,5.488,1.707
72.65,1.195,4.374,8.107,-0.061,5.305,-3.049
72.7,0.869,5.016,7.554,-1.707,-15.488,-3.963
72.75,-0.192,4.302,7.786,-1.524,0.854,-2.561
72.8,0.151,5.047,7.602,0.915,0.549,-3.354
72.85,0.352,4.872,7.626,0.366,2.805,-1.28
72.9,0.407,5.045,7.513,0.366,2.744,-2.683
72.95,0.077,4.817,7.503,-0.305,2.561,-1.402
73,-0.093,4.899,7.594,14.939,2.866,-1.768
73.05,0.29,4.475,7.582,0.793,2.256,-2.317
73.1,0.036,4.702,7.075,15.549,3.049,-1.646
73.15,0.024,4.741,7.472,0,1.585,-3.72
73.2,0.005,4.8,7.592,-15.427,1.646,-3.049
73.25,0.019,4.676,7.223,0.244,2.805,-2.317
73.3,0.429,4.81,7.403,0.122,1.768,-3.293
73.35,-0.093,5.052,7.216,-0.61,1.951,-2.5
73.4,-0.074,4.621,7.805,0.061,0.793,-4.024
73.45,0.122,4.618,7.4,15.549,1.768,-3.11
73.5,0.074,5.025,7.42,-0.305,2.5,-2.561
73.55,0.163,4.843,7.561,-15.549,2.622,-2.195
73.6,0.158,4.877,7.506,0.244,2.439,-2.378
73.65,0.259,4.63,7.374,0.061,2.622,-2.5
73.7,0.057,4.834,7.369,-0.305,2.5,-2.561
73.75,-0.101,4.901,7.652,-15.61,2.744,-1.829
73.8,0.163,4.901,7.317,0.061,2.805,-2.195
73.85,0.129,4.879,7.341,0.366,2.073,-3.049
73.9,-0.292,4.559,7.111,11.89,4.878,0.732
73.95,0.227,3.91,7.305,31.951,13.841,5.366
74,-0.503,4.93,6.414,39.634,7.012,1.341
74.05,-1.065,6.505,6.146,33.232,14.39,10.671
74.1,-0.129,5.071,6.244,32.744,11.098,9.512
74.15,1.041,5.672,7.209,35.427,15.305,10.61
74.2,-0.713,6.026,6.23,33.293,10.549,6.585
74.25,2.768,5.176,6.139,28.963,2.256,15.488
74.3,-0.041,7.101,4.664,28.659,9.756,1.951
74.35,0.895,6.062,5.284,33.841,12.073,4.451
74.4,0.73,7.963,7.13,30.915,4.878,15.061
74.45,1.176,6.967,7.942,30.671,8.11,-0.915
74.5,1.482,8.224,5.186,15.732,8.598,3.354
74.55,-0.026,6.495,4.384,29.207,7.012,-0.671
74.6,-0.833,8.205,5.013,21.829,7.317,-2.317
74.65,-0.077,7.831,5.626,4.573,-1.159,-3.902
74.7,-1.101,8.234,4.216,15.183,6.524,15.488
74.75,-0.189,8.526,4.444,15.183,2.866,-1.768
74.8,-0.031,7.353,4.532,15.549,2.805,-2.927
74.85,0.263,7.712,4.958,0.244,1.89,-2.683
74.9,-0.266,7.865,4.776,-0.854,2.012,-2.317
74.95,-0.05,7.829,4.527,-0.671,0.671,-1.951
75,0.019,7.587,4.999,9.146,2.073,-2.866
75.05,-0.35,8.42,5.262,7.073,10.854,-1.463
75.1,-0.771,8.095,5.277,12.683,1.22,-2.073
75.15,-0.833,8.875,4.111,12.439,3.415,-2.195
75.2,-0.455,7.484,4.87,10.61,-1.524,-4.573
75.25,-0.424,8.234,3.699,9.573,-2.5,-5
75.3,-0.836,8.274,6.273,8.841,8.841,-2.378
75.35,-0.266,7.894,3.021,10.854,6.524,0.61
75.4,0.433,7.247,5.272,13.354,3.78,-2.378
75.45,-0.759,7.025,5.377,15.122,5.427,-4.329
75.5,0.716,12.699,6.031,6.341,1.707,-15.549
75.55,-0.907,7.982,3.086,7.439,6.159,7.256
75.6,-0.481,8.301,3.56,7.5,13.293,4.695
75.65,-0.215,8.497,3.905,7.378,10.305,1.341
75.7,-0.227,8.454,3.622,4.329,9.024,-0.427
75.75,-0.649,8.358,4.331,1.22,2.988,-1.098
75.8,0.103,8.799,4.01,0.244,1.402,-3.232
75.85,0.146,8.679,3.572,0.183,2.439,-2.073
75.9,-0.46,8.404,3.792,-15.549,2.683,-2.317
75.95,0.51,8.705,3.275,-15.427,3.171,-3.171
76,-0.012,8.255,4.077,-15.549,1.037,-2.012
76.05,0.132,8.648,3.63,-2.134,2.317,-3.171
76.1,-0.168,8.777,3.965,1.89,2.256,-1.159
76.15,-0.017,8.602,3.982,0.976,1.098,-2.5
76.2,-0.057,9.019,3.522,-2.744,3.11,-2.805
76.25,-0.46,8.566,3.589,1.768,1.524,-2.378
76.3,-0.539,8.696,3.852,-1.89,1.646,-2.195
76.35,-0.134,8.152,3.512,0.488,2.744,-2.561
76.4,-0.737,7.444,3.457,0.488,1.707,-2.073
76.45,0.072,7.93,4.027,1.829,3.476,-0.854
76.5,-0.232,9.558,3.946,-0.61,2.378,-2.988
76.55,-0.278,8.346,3.625,14.085,3.354,-2.134
76.6,-0.144,8.267,4.08,-2.439,3.963,-2.866
76.65,-0.031,8.607,3.742,-15.549,1.159,-2.195
76.7,-0.496,8.674,3.926,0.549,2.805,-2.134
76.75,0.211,9.038,3.352,-4.573,-4.695,-12.073
76.8,-1.039,8.317,3.259,-10.549,-6.463,-9.695
76.85,1.12,6.926,4.25,-9.451,3.72,1.341
76.9,-1.551,4.381,6.572,-10.976,1.159,-15.427
76.95,3.517,9.021,5.765,-8.78,-13.659,-6.585
77,-1.216,7.618,1.595,-15.122,2.866,-4.695
77.05,-1.396,11.416,1.645,5.488,4.512,-5.793
77.1,-0.17,6.45,4.642,0.915,5,-8.841
77.15,-5.875,5.31,4.587,10.732,4.634,-6.341
77.2,-4.477,6.503,5.787,11.159,8.415,-0.427
77.25,1.635,6.512,5.332,20.122,13.232,-3.659
77.3,-3.218,7.357,5.83,28.598,2.561,-12.683
77.35,-2.428,10.013,5.308,23.841,17.5,-15.366
77.4,-2.052,9.098,4.503,37.012,26.28,3.659
77.45,-2.588,10.35,5.653,26.524,17.317,4.024
77.5,-3.347,11.581,2.531,10.488,0.61,-6.768
77.55,0.158,9.361,3.364,-2.988,2.439,-1.951
77.6,-0.28,8.983,3.213,-2.622,4.634,0.488
77.65,-0.527,7.726,3.129,3.415,8.415,5.976
77.7,-0.508,8.325,2.832,3.72,9.451,2.805
77.75,-1.501,9.622,4.125,9.634,-3.049,-3.598
77.8,-2.061,9.112,3.778,19.878,-10.793,-6.951
77.85,-1.25,10.657,2.203,19.573,-7.134,-2.927
77.9,1.932,8.741,3.692,14.634,-3.537,-8.415
77.95,-0.084,7.93,3.78,29.817,-12.073,4.451
78,0.675,10.831,1.757,23.354,9.573,4.451
78.05,0.084,9.115,1.59,20.122,14.329,1.768
78.1,-0.053,9.73,2.387,26.951,20,0.427
78.15,0.11,9.096,1.973,34.878,16.341,7.683
78.2,-0.625,7.975,1.01,41.829,14.878,0.122
78.25,0.986,10.637,1.848,65.244,15.915,5.061
78.3,0.539,9.955,-0.484,93.537,9.146,10.61
78.35,-0.129,15.984,-2.969,82.439,5.488,-8.537
78.4,-1.865,9.768,-2.567,100.61,12.012,9.878
78.45,-0.52,11.684,-4.669,26.402,8.72,-3.049
78.5,0.34,11.715,-3.876,-26.22,7.622,-6.768
78.55,0.089,10.19,-3.079,-80.061,-1.951,-10.244
78.6,-1.03,9.416,-1.753,-91.098,0.366,-14.268
78.65,0.132,10.745,0.022,-100.122,-1.22,-7.378
78.7,-1.013,9.115,0.424,-88.72,-1.22,-13.537
78.75,-1.286,6.74,2.229,-36.829,2.195,-15.305
78.8,-0.754,10.001,1.767,-25.854,3.72,-15.549
78.85,-0.534,8.619,2.095,-8.049,6.768,2.256
78.9,-0.984,8.873,2.619,-0.488,9.878,2.073
78.95,-0.019,9.495,2.866,1.89,13.841,4.756
79,-0.041,8.432,2.464,27.866,13.902,2.439
79.05,-0.304,8.849,2.854,46.098,19.939,0.488
79.1,0.335,9.024,1.595,64.085,24.573,3.963
79.15,2.643,10.168,-0.148,49.207,36.89,4.634
79.2,-1.35,10.798,-0.273,19.024,27.622,-2.927
79.25,-0.496,9.263,-0.098,30.488,22.805,-0.976
79.3,-0.124,11.487,-0.474,-3.415,16.037,-3.963
79.35,-0.007,10.101,0.852,-0.305,16.28,-1.768
79.4,0.034,9.61,0.383,2.866,12.134,-1.768
79.45,-0.33,9.811,0.017,5.183,5.183,-1.768
79.5,0.373,10.218,0.318,-3.354,4.268,-2.866
79.55,-0.213,10.156,0.213,-4.39,2.866,-3.78
79.6,-0.522,9.701,0.038,15.488,2.561,-0.793
79.65,-0.364,9.922,0.204,2.195,3.963,0.366
79.7,-0.56,10.444,0.017,-2.683,4.085,4.817
79.75,-0.596,9.986,0.158,-5.122,-0.854,-5.854
79.8,0.16,9.589,0.014,-4.817,-11.951,0.854
79.85,1.853,11.2,1.247,-21.585,-4.451,-10.366
79.9,-1.039,9.833,-0.548,-46.768,9.268,-7.073
79.95,-1.013,9.579,1.082,-32.256,7.988,-1.585
80,0.96,10.716,2.492,-30.061,2.073,2.073
80.05,-0.086,7.348,2.677,-8.72,15.488,-0.183
80.1,-0.256,8.66,2.344,12.195,8.293,-0.244
80.15,-0.824,9.603,1.53,16.341,5.061,-6.463
80.2,0.074,7.353,1.185,37.5,8.11,8.11
80.25,-0.429,9.009,0.603,57.439,9.329,9.512
80.3,-0.354,9.036,0.974,76.646,7.5,17.805
80.35,0.311,9.383,-0.443,71.463,16.646,29.573
80.4,-0.68,9.098,-1.798,70.122,17.561,30.976
80.45,0.836,9.629,-3.996,27.317,4.451,-12.317
80.5,-0.524,9.541,-1.439,-14.207,8.11,3.72
80.55,1.128,9.191,-0.572,-10.061,4.695,-5.305
80.6,0.807,10.307,-1.705,-11.22,2.927,-6.402
80.65,0.314,10.511,-1.391,-8.537,2.256,-5.854
80.7,0.498,9.831,-0.962,-6.22,2.744,-5.976
80.75,0.5,10.159,-1.415,-5.488,3.598,-4.329
80.8,0.764,10.082,-1.307,-1.951,1.768,-3.11
80.85,0.306,9.701,-0.965,4.207,2.988,2.988
80.9,0.532,9.862,-1.063,19.207,3.963,14.634
80.95,0.706,9.857,-1.362,28.72,3.415,21.28
81,0.962,12.404,-3.773,9.878,6.524,5
81.05,1.137,9.89,-1.312,4.573,4.756,1.89
81.1,1.358,10.113,-1.944,-1.951,7.073,-0.61
81.15,0.651,10.247,-1.42,2.439,5.122,9.573
81.2,0.342,10.52,-1.128,3.659,4.939,21.159
81.25,1.872,10.25,-2.028,0.61,0.427,15.671
81.3,1.276,10.343,-2.241,0.671,4.512,14.939
81.35,1.348,10.044,-1.839,-3.049,3.78,18.049
81.4,1.46,10.106,-1.338,-3.293,5.488,13.72
81.45,1.697,10.434,-2.274,-8.963,7.012,17.927
81.5,2.229,9.38,-1.937,-3.537,8.659,20.366
81.55,1.745,9.811,-1.446,-3.232,0.854,10.61
81.6,3.395,9.572,-1.027,-1.585,6.402,2.927
81.65,2.574,9.452,-1.235,0.732,2.195,-2.439
81.7,2.33,10.137,-1.707,-1.402,2.134,-1.524
81.75,2.365,9.455,-1.396,0.549,2.683,3.049
81.8,2.677,10.08,-1.82,1.463,1.829,3.902
81.85,2.121,10.42,-1.587,0.976,-0.549,13.476
81.9,2.708,9.917,-1.93,-3.963,0.244,25.732
81.95,2.512,10.101,-1.772,-2.378,-0.976,24.329
82,3.718,10.489,-1.252,-3.293,15,30.427
82.05,3.61,8.985,-1.247,-1.159,-15.427,27.317
82.1,4.324,8.875,-0.819,-2.805,2.927,23.232
82.15,3.63,9.685,-1.195,3.415,0.244,29.451
82.2,3.539,9.989,-1.35,-4.207,4.756,24.024
82.25,4.86,8.952,-1.616,3.11,-15.061,24.939
82.3,5.08,10.364,-2.552,15.183,0.549,25
82.35,5.473,7.374,-1.626,-1.89,4.085,27.683
82.4,5.069,8.272,-0.575,-5.61,5.976,22.988
82.45,4.951,9.249,-0.905,-7.012,5.183,25.183
82.5,4.7,8.969,-0.488,-11.341,9.878,21.89
82.55,6.539,8.981,-1.015,-11.463,6.951,17.866
82.6,5.523,8.119,0.057,-8.72,10.122,8.232
82.65,5.926,7.266,-0.716,0.366,2.988,0.549
82.7,6.105,8.428,-0.848,9.817,-1.89,-1.402
82.75,6.019,8.286,-1.116,7.012,-1.646,-2.622
82.8,6.146,8.471,-1.506,0.793,2.073,-2.317
82.85,6.349,8.368,-1.528,-1.037,6.28,-1.098
82.9,5.145,8.425,-1.477,-18.293,1.402,-5
82.95,5.737,8.052,-0.67,1.402,0.549,-5.305
83,5.66,8.006,-0.663,14.756,-6.402,-8.354
83.05,5.995,7.137,-0.017,21.646,-6.524,-6.037
83.1,5.392,8.456,-1.458,28.11,-4.512,-4.329
83.15,5.748,8.444,-1.721,18.293,-4.695,-2.866
83.2,6.292,9.438,-3.045,-2.866,-1.646,-7.561
83.25,6.984,7.599,-1.875,-5.915,14.817,-10.671
83.3,5.629,7.664,-1.638,-4.634,3.963,-7.5
83.35,5.394,7.685,-1.053,7.5,1.707,-9.146
83.4,5.691,9.943,-3.273,6.402,0.488,-11.707
83.45,5.808,8.485,-2.052,-1.707,8.598,-8.293
83.5,5.732,8.71,-1.475,5.366,1.951,-8.537
83.55,4.769,8.815,-1.805,0.427,3.537,-8.293
83.6,5.411,8.234,-1.834,3.963,2.073,-10.122
83.65,5.174,8.341,-2.16,6.22,-0.488,-6.951
83.7,4.812,8.878,-2.047,-2.073,4.756,-0.488
83.75,5.018,8.947,-1.231,1.402,15.488,5.488
83.8,6.709,8.832,-2.15,0.061,3.72,-16.524
83.85,8.763,10.518,-1.575,18.232,-8.902,-14.329
83.9,6.634,10.092,-2.71,-8.171,4.329,-24.329
83.95,5.339,9.227,-1.618,5,-0.366,-28.415
84,4.475,8.957,-2.598,-0.976,1.341,-31.524
84.05,4.695,10.259,-1.805,-5.488,7.195,-30.488
84.1,4.664,9.067,-1.484,-5.671,1.951,-28.537
84.15,4.075,9.304,-1.772,-2.744,6.28,-24.451
84.2,3.728,9.608,-2.133,-2.439,8.354,-23.902
84.25,4.274,9.385,-2.433,-10.244,10.976,-26.037
84.3,3.503,9.946,-1.573,-5.976,9.39,-21.037
84.35,3.692,9.579,-1.453,-6.341,7.012,-17.988
84.4,3.663,10.348,-1.094,-7.195,7.195,-15.244
84.45,2.741,9.919,-2.176,-11.402,7.988,-14.146
84.5,2.684,8.679,-0.97,-16.037,4.329,5.488
84.55,3.23,8.966,-1.547,-11.951,10.061,18.171
84.6,4.451,10.039,-1.255,-0.549,13.293,13.78
84.65,4.436,8.715,-1.458,-16.524,14.39,0.366
84.7,4.515,9.249,-0.484,-10.366,9.878,-4.451
84.75,3.433,8.983,0.294,-4.146,15.549,-1.524
84.8,4.128,9.596,-0.405,15.61,-3.537,-4.39
84.85,2.883,9.505,-1.12,17.256,-11.037,-5.549
84.9,4.099,9.867,-2.222,10.061,-5.793,14.451
84.95,3.225,9.799,-2.1,-7.317,-14.878,1.768
85,4.499,9.242,-0.936,-6.098,11.585,3.902
85.05,3.419,8.964,-0.417,-0.732,6.28,6.28
85.1,3.299,9.309,-0.57,8.232,5.976,1.463
85.15,3.294,9.409,-1.458,11.951,2.195,2.622
85.2,4.065,9.191,-0.982,9.512,-1.524,2.256
85.25,4.283,9.421,-1.307,10.488,-1.89,-1.646
85.3,3.323,9.682,-1.401,8.72,-7.683,-3.902
85.35,4.374,8.701,-1.441,12.195,-6.707,-8.963
85.4,4.374,8.701,-1.441,12.195,-6.707,-8.963
85.45,4.001,9.646,-2.313,3.476,-5.366,-9.085
85.5,4.104,10.065,-2.404,-15.549,3.293,-15.122
85.55,3.239,9.232,-2.298,-9.817,11.28,-11.646
85.6,3.244,9.34,-1.386,-10.854,2.744,-14.512
85.65,3.144,8.279,-0.864,1.159,3.476,-12.683
85.7,3.196,10.353,-1.36,15.305,-15.488,-3.476
85.75,3.328,10.161,-2.167,11.159,-2.134,-3.598
85.8,3.048,9.711,-2.033,0.244,2.805,-2.805
85.85,3.129,9.412,-1.836,-7.317,6.707,-0.244
85.9,3.797,9.414,-0.982,-2.805,9.268,-4.695
85.95,3.237,9.299,-1.709,9.512,6.829,-5.366
86,3.96,9.744,-2.387,12.805,10.793,-16.768
86.05,3.438,9.953,-1.889,8.78,9.207,-20.183
86.1,3.019,9.467,-1.602,5.732,8.963,-18.537
86.15,2.832,9.752,-2.037,1.829,10.549,-19.451
86.2,2.782,10.314,-2.471,15.427,11.037,-18.354
86.25,2.128,9.938,-1.559,-1.159,14.085,-16.829
86.3,2.33,9.651,-1.93,-2.378,10.549,-16.037
86.35,2.629,10.836,-1.961,-2.439,11.89,-18.476
86.4,2.076,9.809,-2.504,-2.744,13.354,-20.671
86.45,1.537,9.529,-2.181,-4.573,10.915,-16.159
86.5,1.906,9.96,-1.93,-0.244,7.622,-17.805
86.55,1.69,9.673,-1.872,4.207,5,-14.207
86.6,1.173,9.761,-1.867,5.305,5,-7.439
86.65,1.798,10.197,-2.15,-4.207,4.878,-9.939
86.7,1.583,10.228,-2.061,-14.329,6.28,-5.732
86.75,1.197,9.756,-0.733,-2.378,5.366,-4.146
86.8,1.468,10.424,-1.659,4.512,1.829,-1.159
86.85,0.855,9.843,-2.483,6.037,0.183,-1.89
86.9,2.552,10.475,-2.045,-2.927,5.976,-19.878
86.95,2.899,12.39,-1.978,-3.232,14.024,-12.561
87,0.807,11.487,-2.126,-7.866,11.159,-10.732
87.05,0.929,10.204,-0.63,1.89,16.646,-15.244
87.1,0.055,10.216,-1.544,5.427,7.5,-11.89
87.15,0.52,10.465,-1.233,4.085,7.134,-6.89
87.2,0.838,9.967,-1.219,0,-0.183,-9.512
87.25,1.147,9.182,-1.846,25.61,-5.976,-13.049
87.3,0.481,8.892,-2.114,26.463,-4.329,-11.829
87.35,0.292,9.203,-2.049,27.195,-6.037,-10.61
87.4,-0.323,10.116,-2.82,29.878,-5.854,-5.671
87.45,-0.304,10.613,-2.741,26.707,-15.122,1.402
87.5,1.307,9.266,-2.952,28.72,-0.183,-5.732
87.55,0.658,10.056,-3.888,26.89,-0.366,-3.232
87.6,-0.031,11.159,-3.96,32.622,-41.402,-4.39
87.65,0.441,10.343,-3.644,14.024,-29.39,27.988
87.7,2.739,10.24,-5.442,5.854,-18.293,15
87.75,1.59,9.388,-4.82,-10.549,-2.317,-6.159
87.8,1.154,9.426,-4.475,-14.085,2.988,-6.098
87.85,0.757,10.166,-3.838,-19.024,-2.744,-8.476
87.9,-0.52,9.799,-2.957,-9.268,2.683,-3.049
87.95,-0.474,9.531,-2.646,5,5.183,2.134
88,0.579,10.013,-3.529,8.232,3.354,1.402
88.05,1.032,9.948,-4.132,4.268,4.756,-2.439
88.1,0.879,10.07,-4.563,-6.28,0.854,-5.427
88.15,-0.16,10.35,-4.025,-22.805,1.829,-4.39
88.2,0.45,10.242,-3.378,-28.598,3.78,-0.244
88.25,0.895,9.522,-3.024,-20.427,2.866,-1.707
88.3,0.836,9.857,-2.298,-8.476,0.793,-4.146
88.35,0.259,9.946,-2.828,-4.573,2.683,-4.268
88.4,0.06,10.503,-3.428,-8.659,2.561,-1.585
88.45,0.06,10.503,-3.428,-8.659,2.561,-1.585
88.5,0.539,10.099,-2.859,-22.622,1.707,-2.744
88.55,0.441,9.802,-2.097,-18.78,1.707,-4.085
88.6,0.309,10.01,-2.569,-16.89,0.854,-1.951
88.65,0.479,10.226,-2.076,-14.024,3.049,-2.988
88.7,0.362,10.206,-1.884,-12.805,4.268,-4.39
88.75,0.35,9.957,-2.413,-8.902,-0.549,-3.354
88.8,0.117,9.989,-1.729,-1.22,5.793,-3.659
88.85,-0.429,10.118,-1.867,-1.646,1.159,-0.854
88.9,0.536,10.362,-2.641,-3.598,0.244,-3.659
88.95,0.962,10.082,-2.076,-5.61,2.988,-2.317
89,0.208,10.218,-1.688,-8.902,4.451,-1.768
89.05,0.134,10.4,-1.592,-9.634,2.256,-1.341
89.1,0.606,9.668,-1.808,-8.537,-1.037,-1.829
89.15,-0.012,10.156,-1.403,-8.598,-4.024,-4.573
89.2,-0.012,10.329,-1.733,-2.805,1.341,-3.354
89.25,-0.026,10.666,-1.516,-2.988,4.695,-2.195
89.3,0.809,10.166,-2.272,-3.415,2.988,-0.793
89.35,0.505,9.819,-1.501,-4.146,2.744,-2.195
89.4,0.014,10.341,-1.434,-3.415,2.378,-3.476
89.45,0.184,9.919,-1.355,-1.951,2.317,-1.707
89.5,0.417,9.728,-0.874,1.707,1.768,-3.232
89.55,0.242,9.713,-1.235,0.671,2.256,-3.476
89.6,0.34,10.264,-1.659,-2.317,3.476,-4.146
89.65,-0.091,10.307,-1.539,-4.024,1.646,-2.012
89.7,0.065,9.811,-1.482,-4.634,2.805,-1.463
89.75,0.395,10.003,-1.281,-2.195,1.951,-2.195
89.8,0.28,10.036,-1.178,0.183,2.134,-2.256
89.85,0.062,10.111,-1.331,2.195,2.256,-2.195
89.9,0.249,10.111,-1.269,1.524,2.805,-2.195
89.95,0.496,9.948,-1.721,-3.11,8.11,-6.524
90,0.235,9.503,-2.025,-13.537,-0.671,-4.695
90.05,-0.376,10.592,-1.326,-21.159,5.305,-2.5
90.1,-0.424,9.548,-0.637,-23.78,2.927,-1.402
90.15,0.373,9.752,-0.972,-23.537,5.915,-2.927
90.2,0.479,10.436,-0.419,-12.866,20.793,-2.439
90.25,0.39,9.795,0.259,-9.939,27.439,-2.439
90.3,-0.113,9.981,-0.101,2.317,30.61,-2.866
90.35,-0.634,9.922,-0.488,10.427,30.732,-3.72
90.4,-0.543,9.184,-0.438,17.378,-0.61,-3.598
90.45,0.022,10.587,-0.759,16.829,6.951,-0.976
90.5,-0.23,10.558,-0.893,15.915,0.488,-2.134
90.55,0.625,10.116,-1.089,11.829,3.841,-9.817
90.6,0.565,10.077,-1.542,7.805,4.939,-6.707
90.65,-0.385,9.993,-1.14,1.463,6.22,-7.988
90.7,-0.96,10.704,-1.14,3.598,1.159,15.549
90.75,0.129,10.245,-1.109,2.744,4.207,-1.098
90.8,0.108,10.137,-1.324,2.012,2.012,-1.159
90.85,0.297,10.417,-1.468,0.732,2.256,-3.902
90.9,0.077,10.226,-1.353,-1.341,2.317,-4.878
90.95,-0.306,9.972,-1.195,-2.195,2.378,-2.988
91,-0.043,10.235,-1.03,-0.976,2.866,-1.524
91.05,0.108,9.756,-1.063,3.598,0.305,1.22
91.1,-1.068,10.099,-0.824,14.329,-6.159,5.427
91.15,-0.5,9.404,-0.718,30.732,-14.451,16.22
91.2,0.637,8.768,-0.869,35.183,-15.915,6.829
91.25,1.35,9.845,-2.114,32.622,-24.634,-3.78
91.3,0.764,10.508,-2.04,37.256,-17.622,-9.634
91.35,0.321,9.558,-2.885,33.537,2.317,-9.573
91.4,0.215,9.979,-3.251,0.061,-1.951,-4.329
91.45,0.498,10.305,-2.811,6.646,-3.293,-1.28
91.5,-0.12,9.541,-2.485,2.378,-2.561,1.951
91.55,0.393,10.69,-2.825,7.073,-1.159,0.061
91.6,0.666,10.932,-3.603,4.085,2.317,-0.122
91.65,-0.098,9.553,-2.416,8.78,-0.732,-0.427
91.7,0.373,9.385,-2.327,17.622,1.951,-3.963
91.75,-0.014,9.445,-3.12,25.61,0.427,-2.5
91.8,0.79,11.727,-4.204,19.451,4.024,-9.329
91.85,0.567,10.685,-5.186,-3.415,1.768,-8.902
91.9,-0.093,10.274,-4.518,-31.463,5.732,-6.402
91.95,-0.397,10.24,-3.038,-58.293,-1.098,-4.634
92,0.601,9.136,-0.385,-19.573,2.561,-6.768
92.05,-0.347,8.789,-0.522,0.732,4.268,-3.354
92.1,-0.893,9.488,-2.837,36.707,3.78,3.171
92.15,0.002,9.675,-4.125,13.415,0.427,2.5
92.2,0.577,10.274,-4.096,-17.256,-0.854,-2.927
92.25,0.369,9.957,-3.259,-26.768,-0.793,-3.232
92.3,0.129,9.752,-2.205,-18.537,4.451,-0.488
92.35,0.12,10.532,-2.421,-0.366,0.183,0.915
92.4,0.812,9.768,-1.228,4.207,2.622,-5.122
92.45,0.101,10.003,-2.526,12.317,2.622,-2.256
92.5,-0.192,9.948,-2.674,12.988,1.22,1.829
92.55,0.455,10.664,-3.247,5.915,2.378,-3.232
92.6,0.579,10.384,-3.086,-3.537,2.439,-5.305
92.65,-0.096,9.991,-3.12,-6.768,2.317,-3.841
92.7,-0.005,9.804,-2.782,-7.012,2.256,1.707
92.75,0.716,10.132,-2.557,-1.098,1.707,-4.268
92.8,0.472,10.175,-2.023,1.829,1.463,-3.598
92.85,-0.294,9.965,-3.01,2.927,2.744,-1.098
92.9,0.441,10.209,-2.859,-1.159,5.671,-3.293
92.95,0.259,9.969,-2.622,-3.049,0.488,-5.671
93,0.084,10.06,-2.274,2.256,3.415,-1.037
93.05,0.163,10.032,-2.713,4.024,1.341,-0.976
93.1,0.244,10.702,-2.851,-3.72,5.549,-3.78
93.15,-0.091,10.432,-2.849,-13.72,2.317,-3.232
93.2,0.299,10.084,-2.234,-12.5,2.561,-2.317
93.25,-0.113,10.218,-2.231,-5.244,1.402,-1.28
93.3,0.472,10.137,-2.219,3.72,0.671,-2.012
93.35,0.213,9.898,-2.236,11.463,3.171,-3.72
93.4,-0.017,10.06,-2.318,11.768,2.866,-1.098
93.45,0.608,10.142,-2.523,11.22,3.476,0.671
93.5,0.601,10.135,-2.55,7.988,1.646,-2.134
93.55,0.041,9.778,-2.926,7.378,1.524,-2.378
93.6,0.469,10.355,-2.916,3.78,2.195,-0.976
93.65,0.304,10.214,-3.239,2.195,3.293,-0.427
93.7,0.685,9.632,-2.897,-0.915,3.72,-1.89
93.75,0.115,10.192,-3.002,-15.549,0.549,-4.268
93.8,0.113,10.041,-2.816,15.549,1.402,-4.024
93.85,-0.019,9.95,-2.789,4.085,1.646,-2.683
93.9,0.218,9.749,-2.909,11.524,2.622,-2.5
93.95,-0.194,10.922,-3.663,1.89,2.012,-7.195
94,-0.117,10.341,-3.915,-13.293,1.22,-3.049
94.05,0.01,9.878,-2.612,-17.744,0.854,-3.963
94.1,0.105,9.627,-2.03,-5.061,1.646,-3.049
94.15,0.139,9.764,-2.03,8.293,3.049,-1.768
94.2,0.187,10.051,-2.978,9.085,2.927,-1.829
94.25,0.067,10.171,-3.278,-1.037,2.256,-2.317
94.3,0.359,10.53,-2.897,-7.744,2.073,-6.829
94.35,0.5,10.032,-2.804,-7.927,2.5,-13.354
94.4,0.39,10.515,-2.784,-11.098,2.744,-17.683
94.45,-1.037,10.556,-2.811,-17.073,1.951,-6.037
94.5,-0.996,9.613,-2.26,-18.232,1.402,3.78
94.55,0.086,9.433,-2.253,-17.5,0.915,5.244
94.6,-0.086,10.506,-2.009,-19.817,-1.341,2.866
94.65,0.093,10.424,-1.918,-17.195,-0.976,-3.11
94.7,-0.038,10.013,-1.638,-0.244,0.061,-3.659
94.75,-0.421,9.993,-1.432,-13.049,0.305,-3.415
94.8,0.148,9.953,-1.798,-12.012,-15.61,-15.122
94.85,0.268,9.95,-1.307,-13.598,2.134,-0.61
94.9,-0.522,10.175,-1.52,-13.11,1.28,-0.976
94.95,0.201,9.761,-1.348,-14.573,3.537,-0.549
95,0.005,9.081,-0.68,-8.78,-0.915,2.012
95.05,-0.512,9.515,-0.749,-2.683,-2.317,7.195
95.1,-0.034,10.343,-0.958,15.122,1.159,13.232
95.15,0.227,10.204,-0.69,4.451,2.378,8.415
95.2,1.676,10.264,-1.477,9.634,0.305,-3.171
95.25,0.922,10.312,-1.604,4.268,4.146,-7.195
95.3,-0.172,10.187,-1.559,0.122,2.683,-1.646
95.35,0.658,10.872,-1.501,-2.988,4.085,-4.085
95.4,1.334,9.776,-1.405,-12.378,9.024,-18.415
95.45,0.522,10.319,-0.498,-13.902,9.268,-23.659
95.5,-0.34,10.192,-0.18,-14.329,11.098,-16.341
95.55,-1.465,9.337,0.043,-0.915,8.78,-6.829
95.6,-0.251,9.464,-0.766,10.305,10.244,15.549
95.65,-0.235,10.293,-0.721,15.427,6.463,-3.11
95.7,0.146,9.843,-0.771,18.232,4.268,-12.195
95.75,-0.17,9.998,-0.879,18.72,13.354,-8.11
95.8,-1.379,9.946,-1.595,18.354,7.622,-4.146
95.85,-0.536,10.108,-1.626,16.829,9.817,-1.646
95.9,-0.591,10.195,-1.76,0.549,5.61,-3.72
95.95,-0.036,10.159,-1.772,13.902,7.561,-1.341
96,-0.311,9.39,-2.425,12.195,8.537,-1.037
96.05,-0.706,10.568,-2.399,14.39,10.793,1.28
96.1,-0.426,9.658,-2.016,14.756,11.037,3.232
96.15,-1.018,9.517,-2.169,20.976,0.305,8.415
96.2,-0.572,9.802,-3.127,26.585,2.378,9.39
96.25,0.565,10.568,-3.941,17.134,7.622,4.39
96.3,0.661,10.412,-3.749,-3.72,4.146,2.073
96.35,0.448,10.216,-3.366,-22.073,0.122,-9.512
96.4,0.323,9.366,-2.248,-16.951,-1.402,-17.683
96.45,-0.247,10.716,-2.291,4.695,15.366,-11.646
96.5,-0.266,10.257,-1.542,23.171,2.988,-2.622
96.55,-1.068,10.084,-2.392,33.354,2.927,1.402
96.6,-0.182,9.663,-3.206,39.024,3.171,7.134
96.65,-0.156,10.056,-3.953,37.317,-0.61,7.378
96.7,0.086,10.503,-4.499,29.695,5.427,5
96.75,1.061,10.671,-4.843,20.671,6.463,1.098
96.8,0.496,10.412,-5.188,25.488,-1.402,-1.402
96.85,-0.46,9.275,-4.245,13.902,-2.378,-2.561
96.9,-0.472,9.831,-4.367,9.329,-7.683,1.707
96.95,-0.005,9.206,-4.125,7.744,-10.122,3.11
97,1.13,9.481,-3.972,14.39,3.902,0.793
97.05,-0.05,9.17,-4.223,21.22,-3.232,1.463
97.1,0.476,9.383,-5.188,15.244,-1.707,3.963
97.15,0.089,9.929,-5.444,-7.683,11.341,9.024
97.2,-0.151,10.197,-5.217,-29.817,1.463,1.463
97.25,0.572,9.12,-4.037,-26.524,4.207,5
97.3,0.898,9.342,-3.967,-31.159,0.854,-2.256
97.35,0.543,9.819,-3.934,-16.646,2.256,-5.305
97.4,0.381,9.795,-3.443,-11.463,3.354,-4.878
97.45,-0.034,9.965,-3.369,-0.061,2.012,-3.049
97.5,0.211,9.292,-4.384,1.707,2.866,-1.463
97.55,0.658,9.665,-4.235,-3.354,4.085,-4.939
97.6,0.211,9.701,-4.027,-4.817,2.683,-2.012
97.65,0.115,10.218,-3.948,-9.512,3.841,-1.341
97.7,0.4,9.598,-3.9,-5.854,3.476,-2.744
97.75,0.321,9.474,-3.407,-4.695,4.207,-2.866
97.8,0.089,10.525,-4.434,-8.537,1.341,-2.805
97.85,0.433,9.639,-3.922,-30.61,0.671,-2.317
97.9,0.721,9.68,-3.5,-17.134,4.085,-3.78
97.95,0.177,9.878,-3.632,-17.012,2.988,-2.317
98,0.256,9.67,-3.132,-17.683,1.646,-1.707
98.05,0.895,9.926,-3.493,-16.951,-2.866,-1.646
98.1,0.213,10.173,-3.079,-20.549,-15.488,-3.171
98.15,-0.031,9.838,-3.002,-28.476,3.78,-1.585
98.2,0.52,9.991,-2.399,-24.573,1.402,-3.415
98.25,0.184,9.89,-1.717,-18.293,2.195,-3.415
98.3,0.632,9.924,-1.063,-9.878,8.415,-2.5
98.35,-1.147,10.408,-1.52,-2.195,-10.427,-0.488
98.4,0.781,10.451,-2.624,1.707,1.646,-1.585
98.45,0.213,10.151,-2.43,-1.585,3.11,-2.134
98.5,0.213,10.331,-2.591,-10.061,1.098,-2.561
98.55,0.247,10.063,-2.037,-14.024,3.11,-3.049
98.6,-0.144,10.029,-2.14,-13.78,0.732,-2.134
98.65,-0.124,10.511,-1.427,-10.549,-1.098,-2.805
98.7,1.211,9.957,-0.979,-3.963,1.707,-4.146
98.75,0.419,9.955,-1.796,-15.61,1.159,-4.268
98.8,0.084,10.111,-1.724,-2.073,1.341,-1.341
98.85,0.524,10.104,-1.832,-2.012,3.293,-0.061
98.9,0.484,10.02,-1.537,-6.585,3.659,-1.463
98.95,-0.069,10.195,-1.583,-5.244,1.89,-0.549
99,0.048,9.922,-0.994,-4.451,2.683,-0.061
99.05,0.541,10.087,-0.824,-0.976,4.573,12.744
99.1,0.055,9.677,-1.36,2.927,-0.61,0.183
99.15,0.18,10.151,-1.69,5.854,3.049,-5
99.2,0.055,10.259,-2.229,0.976,2.256,-3.72
99.25,0.208,9.749,-2.133,-2.927,1.89,-3.78
99.3,0.06,10.199,-1.75,-5.976,1.341,-1.402
99.35,0.421,10.297,-1.626,-8.963,0.061,-1.524
99.4,0.986,8.985,-1.571,-14.573,8.049,-7.378
99.45,-0.072,9.455,-1.781,-19.329,-0.732,-6.646
99.5,0.036,10.329,-1.137,-22.561,1.463,-4.146
99.55,0.086,10.326,-0.931,-23.171,7.378,-1.768
99.6,0.539,10.333,0.079,-23.293,16.402,-2.012
99.65,0.448,9.39,0.117,-17.012,17.5,0.366
99.7,0.912,9.457,0.285,-1.768,25.671,-1.098
99.75,-0.065,10.02,-0.084,7.561,28.171,-1.463
99.8,-0.555,10.511,-0.584,0.305,-4.39,-2.195
99.85,-0.005,9.615,-0.522,15.549,-0.244,-4.451
99.9,-0.103,10.087,-0.594,12.256,10.976,-2.561
99.95,0.709,9.675,-0.493,17.073,2.195,-4.268
100,0.12,10.25,-1.544,10.915,2.073,-7.561
100.05,0.285,10.24,-1.575,5,10.183,-7.378
100.1,-0.007,10.961,-1.346,-3.11,3.11,-2.805
100.15,-0.448,10.142,-0.656,-0.549,2.134,-15.61
100.2,-0.017,10.116,-0.752,4.146,5.793,0.671
100.25,-0.292,10.099,-1.12,6.463,2.866,-2.988
100.3,-0.223,9.017,-1.073,16.463,0.427,-4.451
100.35,-0.476,9.79,-1.891,30.915,-4.268,-4.817
100.4,0.206,10.19,-1.674,8.537,-10.122,-2.683
100.45,-0.012,9.491,-1.535,2.439,-3.841,-2.988
100.5,-0.579,10.07,-1.958,1.402,-9.817,-1.28
100.55,-0.062,9.608,-1.664,3.72,-10.183,-0.488
100.6,-0.034,9.718,-1.647,3.476,-5.244,-0.244
100.65,-0.093,9.905,-1.271,16.341,-8.841,-1.22
100.7,0.898,10.403,-1.951,20.915,-3.476,-0.244
100.75,-0.271,10.788,-1.362,21.22,-5.305,-0.183
100.8,0.098,9.206,-1.693,26.585,-1.89,1.037
100.85,-0.153,9.749,-2.358,26.402,-4.634,1.646
100.9,1.211,9.972,-2.921,24.634,3.415,-3.659
100.95,-0.309,10.326,-3.077,28.72,-0.305,-1.098
101,0.211,10.721,-3.373,9.085,-1.951,0.366
101.05,0.002,9.395,-3.007,-4.085,2.683,2.134
101.1,0.467,9.907,-2.674,-14.146,2.5,-1.768
101.15,0.484,9.732,-2.093,-6.829,2.5,-7.439
101.2,-0.342,9.756,-2.26,4.695,1.707,-1.037
101.25,0.017,10.041,-2.634,7.134,3.902,2.012
101.3,0.46,10.058,-2.966,1.89,2.927,-2.317
101.35,0.371,10.017,-3.225,-2.805,2.195,-4.512
101.4,-0.299,10.015,-2.617,-4.39,1.28,-4.451
101.45,0.16,10.539,-3.33,-14.329,1.585,1.098
101.5,0.244,9.462,-2.409,-22.805,1.098,-3.841
101.55,0.565,10.087,-1.666,-19.39,2.561,-3.841
101.6,-0.259,10.003,-1.518,-2.927,1.951,-1.89
101.65,-0.151,9.905,-2.207,7.134,2.683,-0.427
101.7,0.412,9.938,-1.642,16.341,2.256,-1.402
101.75,-0.151,10.594,-2.974,16.463,2.683,-3.415
101.8,0.053,10.199,-3.304,0,2.5,-0.671
101.85,-0.115,10.477,-2.978,-9.268,2.561,-0.183
101.9,0.297,9.835,-2.593,-9.939,3.78,-2.073
101.95,0.409,10.123,-2.2,-8.476,1.28,-2.378
102,-0.16,9.778,-1.841,15.488,1.768,-0.854
102.05,0.364,10.386,-2.373,7.683,2.317,-3.78
102.1,-0.072,10.441,-3.053,3.537,3.354,-2.439
102.15,0.376,10.19,-1.767,3.171,2.5,-3.659
102.2,-0.12,10.041,-2.658,9.695,2.561,-0.976
102.25,0.019,10.372,-2.986,2.317,3.232,-0.732
102.3,0.536,10.29,-2.983,-3.841,2.378,-2.927
102.35,-0.084,9.869,-2.461,-0.427,2.012,-3.72
102.4,0.136,10.262,-2.516,-2.317,6.524,-0.854
102.45,0.366,10.202,-2.746,-6.22,5.915,-4.573
102.5,0.764,10.35,-3.256,-20.61,3.293,-8.476
102.55,-0.146,9.996,-1.927,-23.598,3.232,-2.561
102.6,-0.079,10.101,-1.271,-13.476,3.963,-0.488
102.65,0.113,9.594,-1.118,-12.012,4.268,-0.366
102.7,0.038,10.271,-1.784,10.122,3.232,-0.976
102.75,0.158,9.962,-2.255,13.415,1.768,15.488
102.8,0.685,10.058,-2.054,13.232,2.439,-2.683
102.85,0.127,9.895,-2.327,13.232,-0.061,-2.195
102.9,0.074,10.185,-2.303,8.537,4.512,-0.366
102.95,0.342,10.039,-2.545,0.61,1.341,-3.293
103,-0.05,9.888,-2.471,2.073,1.159,-1.22
103.05,-0.517,10.106,-2.476,-15.427,-0.976,0.915
103.1,0.194,10.139,-2.586,2.317,1.28,-0.183
103.15,0.275,10.412,-2.401,10.671,-3.415,-1.951
103.2,0.158,10.391,-2.693,15.183,-0.122,-0.671
103.25,0.357,10.496,-3.51,12.012,2.378,0.366
103.3,0.01,10.185,-3.584,-4.451,3.902,-0.732
103.35,0.323,9.807,-2.971,-11.951,0.793,-5.793
103.4,0.725,10.515,-2.61,-11.22,1.037,-8.902
103.45,-0.165,10.309,-2.744,-11.768,1.463,-5.854
103.5,-0.247,10.264,-2.933,-13.232,1.159,0.488
103.55,-0.218,10.463,-2.689,-17.866,0.183,2.012
103.6,0.127,9.088,-2.703,-17.256,0.793,3.415
103.65,0.553,9.471,-2.243,-16.098,13.537,-0.915
103.7,0.321,10.017,-1.844,-16.037,0.976,-2.378
103.75,0.247,9.823,-1.707,-13.171,1.646,-3.476
103.8,0.117,10.02,-1.712,-12.134,1.28,-1.524
103.85,0.297,10.142,-1.994,-12.317,3.171,1.037
103.9,0.582,10.487,-1.489,-12.378,2.805,0.305
103.95,0.227,10.185,-1.489,-11.402,0.305,-5.366
104,0.517,10.063,-1.317,-10.793,2.439,-2.561
104.05,0.299,9.438,-1.31,-10.488,2.378,1.829
104.1,-0.237,9.29,-1.329,-6.585,1.037,7.561
104.15,0.922,10.005,-0.843,-4.695,5.427,1.341
104.2,1.01,9.943,-1.058,2.988,1.951,-3.598
104.25,0.113,10.195,-1.379,0.915,2.927,-4.817
104.3,0.855,10.786,-1.403,-6.646,8.049,-10.305
104.35,0.802,10.242,-1.168,-11.098,11.524,-23.476
104.4,-0.06,9.907,-0.074,-10.244,11.524,-18.72
104.45,-1.168,9.577,-0.065,2.073,8.171,-9.939
104.5,-0.855,9.685,-0.242,11.646,13.598,-4.085
104.55,-0.608,9.737,-0.694,16.098,12.927,-0.427
104.6,-0.891,10.013,-1.039,20.244,2.5,-4.512
104.65,0.33,10.159,-1.463,17.805,7.134,-7.988
104.7,0.139,9.752,-1.259,19.512,8.598,-7.988
104.75,-0.35,10.072,-1.872,13.841,8.232,-5.427
104.8,-0.831,10.13,-2.028,31.037,6.159,-1.707
104.85,-0.409,10.18,-2.064,13.841,8.659,-0.366
104.9,-0.591,10.719,-2.291,17.5,8.476,-1.829
104.95,-0.517,9.661,-2.303,10.915,12.988,1.463
105,-0.524,9.558,-2.337,13.902,10.488,5.122
105.05,-1.405,9.38,-2.813,22.622,0.122,9.939
105.1,-0.306,9.972,-2.914,23.11,-2.744,12.256
105.15,0.345,10.364,-4.12,7.256,-15.61,7.012
105.2,0.575,10.032,-4.125,-10.793,2.866,-5.366
105.25,-0.443,10.405,-2.607,-21.159,1.28,-3.049
105.3,0.168,9.922,-2.193,-12.195,3.171,-4.024
105.35,0.103,10.135,-1.123,-1.585,3.171,-15.122
105.4,-1.075,10.506,-2.909,10.732,1.707,3.537
105.45,0.031,10.185,-2.72,17.378,3.841,8.598
105.5,0.529,9.17,-2.816,25.305,5.976,6.159
105.55,0.17,10.132,-2.813,30.244,1.829,0.244
105.6,0.986,10.029,-3.469,29.451,4.39,-2.012
105.65,-0.431,9.574,-3.259,28.537,-3.78,-3.902
105.7,0.943,10.252,-4.207,24.146,6.22,-2.378
105.75,0.438,9.598,-4.204,13.415,1.646,0.915
105.8,-0.373,9.5,-4.384,12.988,5.122,-0.122
105.85,0.053,10.166,-5.047,9.207,0.183,-0.671
105.9,0.553,9.148,-3.847,15.427,6.341,-1.524
105.95,-0.606,9.076,-4.599,18.963,-2.622,-1.22
106,0.177,8.995,-4.518,16.159,0.671,-3.902
106.05,0.057,9.644,-5.219,2.134,3.78,-1.341
106.1,0.151,9.718,-4.657,-6.28,3.78,0.061
106.15,0.311,9.819,-4.721,-27.683,3.232,-3.11
106.2,0.733,9.467,-4.128,-20.122,2.988,-2.439
106.25,0.227,9.323,-3.905,-15.244,2.866,-2.805
106.3,0.323,9.625,-3.639,-8.293,2.927,-2.317
106.35,0.302,9.919,-3.498,-0.244,2.317,-1.28
106.4,0.371,10.02,-3.589,-0.488,4.39,-2.439
106.45,-0.077,10.259,-4.245,-3.049,2.256,-1.402
106.5,0.388,10.044,-4.594,-12.195,1.28,-2.317
106.55,0.644,9.965,-4.049,-21.341,2.744,-3.354
106.6,0.335,9.761,-3.737,-21.89,1.768,-2.378
106.65,0.352,9.807,-3.452,-16.524,2.012,-2.256
106.7,0.146,9.912,-3.189,-14.207,-0.61,-1.707
106.75,0.675,10.046,-3.16,-13.537,3.293,-2.683
106.8,0.364,10.484,-3.333,-20.793,2.134,-3.232
106.85,0.177,10.314,-3.177,-24.573,0.122,-1.829
106.9,0.007,9.998,-2.44,-26.037,2.134,-3.11
106.95,0.323,9.946,-2.016,-18.11,2.744,-1.768
107,-0.124,10.036,-2.263,-14.085,-2.683,-3.293
107.05,0.144,10.13,-1.346,-0.427,4.024,-4.024
107.1,0.177,9.874,-2.105,-2.744,3.659,-5.305
107.15,0.192,10.065,-2.205,-1.28,3.476,-3.78
107.2,-0.048,10.221,-2.248,-9.024,4.451,-1.341
107.25,1.01,10.252,-2.5,-10.244,2.378,-2.256
107.3,0.402,10.195,-2.028,-11.829,0.61,-2.256
107.35,0.33,10.238,-1.951,-10.732,0.244,-3.415
107.4,0.323,10.051,-1.314,-11.402,4.451,-3.11
107.45,-0.304,9.771,-1.434,-7.622,14.512,-4.817
107.5,0.532,9.962,-1.539,-2.378,1.89,-1.89
107.55,0.429,10.405,-1.281,0.488,1.159,-3.354
107.6,0.024,10.285,-1.755,2.134,3.293,1.646
107.65,-0.127,10.051,-1.834,-0.915,4.146,-4.207
107.7,0.091,10.367,-1.626,-7.073,4.39,-1.707
107.75,0.055,10.056,-1.774,-7.317,1.646,-3.659
107.8,0.335,9.699,-1.12,-3.354,5.244,-0.427
107.85,0.259,9.783,-1.231,1.524,1.098,-0.488
107.9,0.354,10.017,-1.238,0,1.951,-0.854
107.95,0.273,9.668,-1.657,-2.988,2.195,-2.622
108,0.527,10.324,-1.592,-3.049,2.195,-3.659
108.05,0.225,10.206,-1.618,-4.878,2.256,-2.5
108.1,0.06,10.063,-1.346,-3.598,3.171,-0.854
108.15,0.175,10.077,-1.221,-0.854,2.195,-0.976
108.2,0.438,10.35,-1.08,15.488,2.5,-1.646
108.25,-0.412,9.905,-1.832,-5.915,4.756,5.915
108.3,-0.678,9.67,-1.458,-10.061,-0.793,4.756
108.35,0.603,10.262,-1.662,-9.817,3.11,0
108.4,0.85,9.39,-1.128,-15.366,3.78,-3.659
108.45,0.694,10.379,-0.69,-8.598,10.244,-8.415
108.5,0.038,10.228,-0.934,-9.878,7.683,-7.012
108.55,-0.297,10.058,-0.704,-0.61,3.963,-2.927
108.6,-0.129,10.506,-0.508,-2.012,3.293,-1.463
108.65,0.96,9.888,-1.403,5.183,3.963,-2.561
108.7,-0.129,9.807,-0.948,3.841,4.451,-4.573
108.75,-0.17,8.945,-0.826,5.366,6.037,-4.512
108.8,0.378,9.378,-0.735,7.805,9.085,-2.195
108.85,0.479,9.744,-0.761,5.793,6.524,-3.232
108.9,0.201,9.536,-0.852,9.39,3.232,-6.341
108.95,0.204,9.436,-0.783,8.963,9.939,-7.195
109,0.297,10.681,-0.898,9.024,1.037,-16.463
109.05,0.23,9.989,-1.614,6.22,8.11,-14.085
109.1,-1.362,10.484,-1.714,-2.256,-2.866,-10.122
109.15,-0.97,9.661,-1.446,-4.146,6.646,3.476
109.2,-1.221,9.843,-1.13,4.39,-4.695,19.085
109.25,0.579,10.034,-1.061,0.366,-5.305,14.695
109.3,1.695,10.111,-1.477,15.488,-15.427,3.354
109.35,1.695,10.111,-1.477,15.488,-15.427,3.354
109.4,0.749,10.532,-1.798,5.122,-5.793,-13.232
109.45,-0.642,10.704,-1.539,6.707,1.768,-3.293
109.5,-0.807,10.329,-1.391,7.5,1.037,2.988
109.55,0.481,8.547,-1.142,13.598,-11.829,1.707
109.6,1.511,9.395,-1.573,18.537,2.012,-2.378
109.65,0.148,10.106,-1.681,19.207,2.073,-3.902
109.7,0.278,9.972,-1.942,20.976,-1.341,-1.402
109.75,-0.103,10.187,-2.428,17.073,2.927,4.207
109.8,0.256,9.902,-2.258,21.707,0.549,-1.341
109.85,0.716,10.499,-3.158,17.5,5.183,-3.476
109.9,0.251,10.053,-3.306,10.793,2.134,-4.146
109.95,0.95,11.48,-3.85,1.585,-0.671,-21.463
110,-0.991,10.226,-3.649,-12.439,-1.22,-10.915
110.05,-0.883,10.195,-2.444,-16.707,2.378,0.671
110.1,-0.089,9.579,-1.958,-1.707,4.512,6.28
110.15,1.209,10.075,-2.71,12.378,1.89,-7.073
110.2,-0.098,9.943,-3.749,1.707,4.939,-3.293
110.25,-0.479,10.197,-4.159,-22.073,1.463,0.305
110.3,0.644,9.787,-2.696,-32.073,3.78,-2.805
110.35,0.201,9.723,-1.894,-27.927,0.671,-3.841
110.4,-0.587,10.166,-1.283,-21.28,15.549,-2.256
110.45,-0.041,9.531,-1.216,19.329,2.561,-1.402
110.5,-0.041,10.417,-2.595,19.634,4.146,-0.244
110.55,0.306,9.898,-2.926,3.902,3.293,-3.659
110.6,-0.275,10.156,-3.053,-1.951,2.073,-4.695
110.65,0.115,10.314,-2.686,-5.244,3.78,-0.915
110.7,0.285,9.658,-2.356,-6.89,3.659,-3.11
110.75,-0.11,9.639,-1.81,-2.134,-0.427,-2.866
110.8,-0.122,10.053,-2.308,2.439,2.927,-0.244
110.85,0.17,10.199,-2.243,2.378,2.317,-2.439
110.9,0.338,10.025,-2.389,4.878,1.159,-1.951
110.95,0.321,10.46,-2.102,14.695,3.049,-2.805
111,-0.256,10.551,-3.316,8.171,1.829,0.366
111.05,0.254,10.333,-3.031,-4.268,3.537,-4.39
111.1,-0.122,9.845,-2.251,-4.146,0.915,-2.927
111.15,-0.041,9.754,-2.325,2.134,3.963,-0.61
111.2,0.35,11.013,-3.33,-11.646,2.988,-5.061
111.25,0.069,10.092,-3.096,-32.195,2.683,-6.402
111.3,0.366,10.075,-2.035,-28.11,4.024,-3.78
111.35,0.227,10.127,-0.97,-8.11,4.512,-0.915
111.4,-0.036,10.221,-1.369,-1.89,3.415,-0.976
111.45,0.259,10.288,-1.8,14.451,4.024,-2.866
111.5,-0.151,9.364,-1.757,15.244,1.646,-15.244
111.55,0.263,10.558,-2.523,14.878,3.902,-0.793
111.6,0.405,9.811,-2.468,12.683,1.768,-2.683
111.65,-0.129,9.876,-2.689,8.841,2.561,-0.976
111.7,0.314,9.517,-2.619,-0.854,1.768,-0.244
111.75,0.433,10.247,-2.212,-3.171,2.073,-4.573
111.8,-0.084,10.101,-2.318,-1.22,0.732,-2.378
111.85,0.448,10.455,-2.677,-0.305,2.378,-0.549
111.9,0.041,9.828,-2.255,6.341,15.488,-2.195
111.95,0.23,9.187,-1.973,21.524,-1.402,-3.841
112,-0.335,10.017,-3.596,25.732,2.866,-2.988
112.05,0.522,10.039,-3.994,3.049,3.659,-4.329
112.1,0.019,9.867,-3.505,-13.171,1.951,-4.024
112.15,0.045,9.649,-2.674,-14.878,2.317,-3.415
112.2,0.148,10.798,-2.243,-1.646,2.073,0.122
112.25,-0.242,10.209,-2.988,-3.049,1.768,0.915
112.3,0.656,9.596,-3.352,-5.915,1.098,-15.488
112.35,0.529,10.214,-3.041,-12.561,0.61,-3.293
112.4,0.187,9.586,-2.883,-17.256,0.122,-2.5
112.45,-0.036,10.118,-2.535,-19.329,0.793,0.854
112.5,-0.036,10.118,-2.535,-19.329,0.793,0.854
112.55,0.879,10.649,-1.999,-17.622,1.829,-1.646
112.6,0.345,9.977,-1.781,-14.207,2.5,-4.817
112.65,-0.089,10.008,-1.525,-12.256,2.073,-1.524
112.7,0.522,9.522,-1.757,-13.049,1.463,-1.402
112.75,0.271,9.349,-1.501,-10.854,1.28,-15.61
112.8,0.297,9.582,-1.494,-9.451,2.5,-3.598
112.85,0.259,10.302,-1.288,-9.085,3.293,-1.646
112.9,0.117,10.554,-1.642,-8.841,0.183,-1.402
112.95,0.467,10.082,-1.259,-6.829,4.146,0
113,0.553,9.981,-1.132,-1.707,1.768,-2.012
113.05,0.285,9.785,-0.821,2.866,1.22,-3.659
113.1,0.034,10.111,-0.929,5.305,3.049,-1.402
113.15,1.369,10.968,-1.709,-7.317,9.817,-12.744
113.2,0.991,10.807,-1.487,-14.634,11.768,-19.878
113.25,0.436,9.522,-0.304,-14.939,11.829,-25.061
113.3,-0.649,8.71,-0.175,-15.305,16.341,-18.659
113.35,-0.654,10.977,-0.766,-14.939,17.439,-7.622
113.4,-0.915,9.862,-0.718,11.341,9.085,-2.378
113.45,0.144,10.25,-0.771,12.683,3.72,-3.598
113.5,-0.388,10.242,-1.3,12.805,6.646,-4.207
113.55,0.026,9.965,-1.058,13.354,10.61,-5.976
113.6,-0.481,9.795,-1.257,16.707,7.317,-4.451
113.65,-0.596,9.881,-1.508,16.159,6.89,-3.415
113.7,-0.747,9.687,-1.844,14.756,10.183,1.951
113.75,-1.168,10.355,-2.425,14.573,8.902,0.976
113.8,-0.168,10.135,-2.102,15.305,10.854,2.378
113.85,-0.158,9.445,-1.973,20.976,11.829,1.524
113.9,-0.627,9.555,-2.303,23.72,2.256,5.793
113.95,-0.673,9.534,-3.587,22.683,0.305,13.476
114,-0.646,11.011,-4.029,8.415,-2.866,12.439
114.05,0.414,10.415,-3.646,-6.89,-2.805,5.854
114.1,0.936,9.962,-3.115,-12.866,2.927,-3.963
114.15,0.12,9.946,-2.942,-12.744,-0.854,-9.268
114.2,-0.151,9.972,-2.145,-9.39,0.915,-9.146
114.25,-0.776,9.629,-2.727,-4.39,2.256,-5.183
114.3,-0.591,10.35,-2.025,15.427,3.659,1.951
114.35,0.441,10.123,-2.543,5.61,6.463,-0.976
114.4,-0.141,10.525,-2.677,14.39,-2.439,-4.451
114.45,-0.438,10.048,-2.397,25.976,15.549,-8.049
114.5,-0.067,9.474,-2.571,35.488,3.841,0.183
114.55,-1.209,10.546,-3.314,30.305,1.159,1.829
114.6,0.299,9.215,-3.95,33.659,1.646,2.866
114.65,0.496,10.068,-4.159,30.976,3.659,3.171
114.7,-0.57,10.408,-4.554,17.378,-3.598,-1.463
114.75,0.01,9.668,-4.501,14.756,2.805,1.463
114.8,0.132,9.673,-4.118,2.622,-4.451,-1.951
114.85,0.306,9.749,-4.314,7.744,-1.585,4.268
114.9,0.836,8.966,-4.075,12.683,-5.061,1.28
114.95,0.797,9.843,-4.922,13.11,1.098,0.244
115,-0.048,9.1,-4.326,10.488,-8.354,4.268
115.05,0.096,9.625,-4.712,10.915,6.22,3.171
115.1,-0.35,9.84,-5.253,-21.89,8.659,10.793
115.15,-0.285,9.258,-4.554,-25,1.768,2.988
115.2,0.788,9.582,-3.725,-19.207,4.085,3.171
115.25,0.907,9.366,-3.706,-14.451,3.232,-5.366
115.3,0.654,9.527,-3.376,-4.756,0.366,-5.671
115.35,-0.034,9.639,-3.273,5.061,2.256,-2.378
115.4,0.05,9.598,-4.274,5.122,3.841,1.341
115.45,0.5,9.881,-4.611,0.549,1.89,-0.183
115.5,0.814,9.807,-4.585,-9.634,1.707,-3.963
115.55,0.232,9.804,-4.305,-18.659,4.268,-3.902
115.6,-0.29,9.929,-3.78,-17.378,1.463,-1.098
115.65,-0.077,9.989,-3.706,-18.11,2.073,-2.073
115.7,0.421,9.735,-3.536,-20.061,1.951,-1.707
115.75,0.582,9.74,-3.778,-17.744,2.805,-3.354
115.8,0.608,9.742,-3.414,-16.22,-15.549,-2.988
115.85,0.292,9.962,-3.074,-20.671,0.61,-2.683
115.9,0.168,9.859,-2.885,-25.305,0.732,-1.22
115.95,0.247,10.075,-2.342,-20.976,0.183,-1.829
116,0.491,10.135,-2.411,-20.183,3.537,-3.841
116.05,0.16,10.218,-1.901,-15.305,0.366,-3.476
116.1,0.45,9.515,-1.683,-6.402,1.28,-4.756
116.15,-0.136,10.118,-2.586,-0.61,-1.341,-5.61
116.2,-0.405,10.23,-2.073,-4.573,-4.512,-1.402
116.25,-0.666,10.278,-2.514,-4.573,4.512,-1.463
116.3,0.589,10.022,-2.464,-5.915,2.927,-2.5
116.35,0.098,10.218,-2.569,-10.732,1.89,-0.122
116.4,0.05,9.802,-2.234,-7.866,0.732,-2.927
116.45,0.048,10.06,-2.224,-9.695,1.159,-2.622
116.5,0.189,10.046,-1.877,-10.732,2.5,-0.61
116.55,0.223,9.955,-1.238,-10.915,-0.671,-2.439
116.6,0.512,9.756,-1.511,-4.085,4.451,-1.037
116.65,-0.101,10.001,-1.781,-1.829,0.915,-3.598
116.7,0.175,10.46,-1.784,-0.793,2.561,-1.159
116.75,0.388,10.202,-2.217,-3.476,6.524,-1.463
116.8,-0.424,10.123,-1.798,-4.939,0.427,-1.768
116.85,0.357,10.094,-1.719,-5.549,1.768,-5.854
116.9,0.005,9.747,-0.972,-2.927,3.171,-1.28
116.95,-0.136,9.847,-1.223,-0.061,1.585,-0.488
117,0.39,10.077,-1.523,-2.256,2.744,-2.439
117.05,0.582,10.386,-1.346,-3.049,0.976,-3.11
117.1,-0.005,10.135,-1.444,-4.207,1.707,-2.317
117.15,0.297,9.843,-1.441,-2.5,2.195,-0.793
117.2,0.376,10.015,-1.144,-0.488,2.561,-1.585
117.25,0.314,9.955,-1.075,0.549,2.134,-2.683
117.3,0.122,9.732,-2.143,-2.073,5.854,-2.012
117.35,0.235,10.647,-2.248,-13.476,8.537,-4.329
117.4,0.084,9.428,-2.267,-24.085,-0.305,-4.756
117.45,0.18,10.147,-1.556,-29.756,3.598,-5.122
117.5,0.101,10.448,-0.318,-27.378,10.183,-2.561
117.55,0.728,9.792,0.096,-25.427,13.049,-2.317
117.6,0.464,9.309,0.532,-5.976,21.463,-4.451
117.65,0.666,9.493,0.678,-4.939,23.963,-1.341
117.7,-0.12,9.905,0.05,5.488,20.854,-1.585
117.75,-0.103,8.193,0.385,20.488,7.866,-1.037
117.8,0.278,9.807,-0.268,1.037,6.707,-0.427
117.85,0.345,9.383,-1.089,17.256,-15.488,-2.378
117.9,0.211,10.817,-1.796,13.963,4.085,-6.524
117.95,0.534,10.551,-1.528,8.476,6.037,-8.11
118,0.215,10.171,-1.257,2.622,7.012,-7.256
118.05,0.053,11.483,-1.183,-1.646,7.256,-6.341
118.1,-0.352,10.343,-0.725,1.402,5,-3.841
118.15,-0.429,9.838,-1.063,5.427,1.707,-0.427
118.2,0.299,9.95,-1.185,4.207,2.988,-0.732
118.25,0.172,10.063,-1.247,1.098,2.5,-2.805
118.3,0.045,9.996,-1.334,-1.951,2.805,-4.085
118.35,-0.239,9.364,-0.989,-0.915,3.232,0.915
118.4,-2.006,9.747,-1.03,7.073,-11.951,26.341
118.45,0.637,9.136,-0.52,7.378,9.085,32.927
118.5,1.075,8.751,-1.341,19.939,-14.329,13.232
118.55,2.643,11.229,-1.8,22.5,-5.183,-0.366
118.6,2.152,9.366,-2.061,19.817,1.037,-5.122
118.65,0.599,10.582,-1.946,8.476,-0.793,-11.585
118.7,0.991,10.226,-2.045,11.707,0.549,-13.354
118.75,1.041,10.362,-2.184,6.28,4.634,-9.878
118.8,-0.034,8.748,-1.669,13.72,-1.159,-0.61
118.85,0.031,9.431,-2.088,18.659,3.598,5.61
118.9,0.795,10.329,-2.203,16.28,0.915,2.134
118.95,1.211,9.972,-2.509,14.146,1.829,-0.671
119,0.405,10.072,-2.303,10.732,-1.463,-4.085
119.05,1.149,10.262,-2.722,18.598,1.159,-6.159
119.1,1.42,10.783,-3.836,4.512,-4.756,-22.927
119.15,1.645,10.374,-3.412,-1.098,-8.232,-38.598
119.2,0.486,11.6,-3.797,-9.024,0.793,-31.585
119.25,-2.32,9.515,-3.206,-27.195,0.61,-4.39
119.3,-0.663,9.591,-1.566,-14.024,6.28,13.78
119.35,1.578,9.543,-1.607,14.207,2.988,0.122
119.4,0.168,9.943,-2.938,16.098,-0.427,-8.963
119.45,-0.089,10.372,-4.257,-2.317,3.11,-3.11
119.5,-0.199,10.494,-3.699,-23.902,1.829,2.256
119.55,0.85,10.135,-2.313,-32.744,1.768,-3.841
119.6,0.091,9.737,-1.329,-20.732,1.707,-3.78
119.65,0.017,9.991,-0.795,-9.146,2.317,-4.512
119.7,-0.474,10.238,-1.568,17.134,1.28,1.22
119.75,0.225,9.84,-1.851,19.024,5.427,-0.976
119.8,0.481,10.293,-3.244,5.061,0.122,-4.634
119.85,-0.412,10.149,-2.662,-2.805,4.024,-15.366
119.9,0.457,10.163,-2.234,-5.366,3.841,-0.366
119.95,0.883,9.809,-2.705,-7.134,1.159,-3.78
120,-0.429,10.099,-2.083,-1.037,0.976,-0.915
120.05,0.273,10.223,-2.339,2.5,1.585,-1.951
120.1,0.414,9.929,-2.253,3.841,1.707,-2.683
120.15,0.457,10.101,-1.918,10.061,-0.915,-1.585
120.2,-0.237,9.455,-2.677,16.768,3.963,-0.793
120.25,0.584,10.41,-3.4,2.622,2.012,-0.671
120.3,0.079,10.23,-2.818,-4.878,3.293,-5.671
120.35,-0.292,10.24,-2.555,-7.439,4.695,-1.646
120.4,-0.357,10.118,-2.428,-12.622,1.22,1.037
120.45,1.152,9.993,-2.272,-10.793,5.366,-4.878
120.5,0.055,10.211,-2.03,0.732,4.695,-1.524
120.55,0.127,9.582,-1.978,4.573,0.915,15.427
120.6,0.371,10.056,-1.906,10.488,2.378,-1.951
120.65,0.115,10.324,-2.737,9.146,0.793,-2.073
120.7,0.086,10.235,-2.55,11.951,2.073,-1.463
120.75,0.237,10.223,-2.466,9.146,3.537,-1.524
120.8,0.412,10.546,-2.849,8.659,0.305,-0.183
120.85,-0.072,10.104,-2.883,2.073,3.232,-1.037
120.9,0.036,9.831,-2.749,0.915,0.671,-0.549
120.95,0.57,10.01,-2.871,0.793,2.683,-3.232
121,0.326,10.36,-2.832,1.768,2.134,-2.988
121.05,0.263,10.214,-2.756,6.341,2.378,-3.171
121.1,0.292,10.211,-3.06,10.671,2.317,-1.646
121.15,0.163,10.697,-3.876,4.756,2.256,-2.378
121.2,0.522,9.969,-3.61,-9.878,2.805,-5.854
121.25,-0.259,9.902,-2.761,-16.28,1.098,-3.232
121.3,0.072,9.529,-2.097,-5.61,2.5,-3.659
121.35,0.709,10.211,-2.456,2.622,2.195,-11.951
121.4,0.16,10.697,-3.201,-4.756,1.89,-13.902
121.45,-0.508,10.484,-2.646,-14.817,0.915,-10.427
121.5,-0.577,9.941,-2.337,-14.634,2.561,0.122
121.55,-0.706,9.996,-2.193,-19.329,1.159,7.805
121.6,0.026,9.953,-2.205,-20.183,0.427,4.39
121.65,0.522,10.266,-2.327,-21.098,-2.805,-1.037
121.7,0.127,9.735,-1.946,-18.841,0.549,-4.817
121.75,0.041,10.405,-1.487,-12.744,-0.244,-5
121.8,-0.34,9.773,-1.635,-11.341,1.707,-1.402
121.85,0.031,9.85,-1.137,-12.561,4.695,-1.768
121.9,-0.168,10.386,-1.571,-11.768,0.549,0.488
121.95,0.208,9.905,-1.08,-13.841,4.146,-15.061
122,-0.22,9.713,-1.204,-11.585,1.463,-0.671
122.05,-0.534,9.321,-0.886,-7.439,-0.793,6.037
122.1,-0.479,10.147,-0.905,-2.5,-0.061,12.012
122.15,0.893,9.268,-1.039,2.683,2.5,5.793
122.2,1.18,9.723,-1.279,7.439,1.037,-3.293
122.25,0.29,10.57,-1.286,3.354,2.744,-6.524
122.3,-0.244,10.341,-1.518,-15.61,1.402,-0.427
122.35,0.524,10.159,-1.372,-0.793,3.354,-1.89
122.4,1.365,10.585,-1.635,-4.573,4.634,-7.683
122.45,1.183,10.125,-1.319,-10.244,10.915,-21.159
122.5,0.084,10.214,-0.852,-8.963,12.439,-21.463
122.55,-1.226,9.428,-0.407,6.159,10.427,-3.293
122.6,-1.032,9.96,-0.759,10.61,11.28,0.305
122.65,-0.362,9.744,-0.907,18.232,3.293,-3.841
122.7,0.302,10.104,-1.346,19.024,2.683,-6.341
122.75,-0.283,10.372,-1.408,16.585,9.207,-6.768
122.8,-0.081,9.012,-1.422,17.988,7.927,-6.524
122.85,-0.699,10.285,-1.741,0.061,6.524,-3.537
122.9,-0.601,10.628,-1.75,14.39,6.829,-2.134
122.95,-0.192,9.89,-2.21,14.451,8.049,-2.866
123,-0.199,10.702,-2.404,11.89,8.902,-1.037
123.05,-0.048,9.898,-2.423,14.085,11.402,-0.122
123.1,-0.472,9.62,-2.473,14.512,13.049,2.683
123.15,-0.397,9.342,-2.413,15.976,9.878,9.024
123.2,-0.309,10.412,-2.983,20.671,-1.402,12.744
123.25,0.903,10.017,-3.651,7.927,0.061,5.427
123.3,0.534,10.075,-4.128,-6.829,1.098,-1.89
123.35,0.369,10.06,-3.153,-20.366,2.866,-0.854
123.4,0.651,10.441,-2.26,-23.963,4.695,-12.134
123.45,-0.634,11.037,-1.949,-14.756,-2.622,-7.927
123.5,-0.318,9.299,-1.59,29.695,3.72,0.183
123.55,-0.967,9.261,-2.169,31.463,4.573,1.585
123.6,-0.12,9.373,-3.115,39.512,15.061,3.049
123.65,0.182,9.78,-3.833,37.927,5.61,7.622
123.7,-0.043,9.816,-4.532,32.561,-15.61,-1.524
123.75,0.539,11.126,-4.731,19.634,1.707,-0.671
123.8,-0.057,9.831,-4.274,9.146,-7.256,-3.659
123.85,0.23,8.988,-4.827,7.927,-7.683,-1.951
123.9,-0.785,9.495,-4.59,7.744,-15.122,3.171
123.95,-0.759,8.487,-4.02,8.841,4.268,1.524
124,-0.206,9.194,-4.065,16.585,0.793,0.671
124.05,-0.534,9.61,-4.453,13.11,-8.232,-0.183
124.1,0.833,9.941,-4.326,17.134,-3.171,1.646
124.15,-0.517,9.603,-5.298,-7.317,11.341,7.988
124.2,-0.172,9.373,-4.583,-20.976,1.098,2.866
124.25,0.646,9.069,-4.017,-19.512,4.268,1.89
124.3,0.721,9.469,-4.075,-12.378,2.805,-4.451
124.35,0.16,9.629,-3.539,-8.72,1.768,-4.146
124.4,-0.273,9.675,-3.565,-4.878,3.11,-2.012
124.45,-0.019,9.778,-3.747,2.317,3.78,-0.854
124.5,0.718,9.977,-4.547,1.098,1.463,-2.439
124.55,0.23,10.235,-4.834,-10.244,2.927,-4.024
124.6,0.038,10.104,-4.369,-16.463,3.171,-2.195
124.65,0.084,10.12,-3.938,-22.378,2.256,-1.22
124.7,0.445,9.67,-3.654,-20.61,2.439,-3.11
124.75,0.405,9.914,-3.484,-18.659,2.195,-2.561
124.8,0.187,10.005,-3.4,-18.598,0.366,-1.463
124.85,0.579,9.96,-3.203,-19.878,0.61,-2.439
124.9,-0.115,9.759,-3.002,-22.805,1.585,-2.988
124.95,0.311,10.142,-2.914,-23.659,4.268,-2.439
125,0.462,9.766,-2.339,-20.549,0.183,-3.11
125.05,0.266,10.192,-1.918,-15.915,0.488,-3.049
125.1,0.067,9.948,-1.896,-13.049,-2.256,-3.659
125.15,0.503,9.821,-1.851,-3.415,6.341,-6.585
125.2,0.148,9.883,-1.678,-4.207,3.11,-2.805
125.25,0.165,10.005,-1.709,-1.28,1.646,-1.402
125.3,0.596,10.206,-2.437,-2.073,4.39,-1.951
125.35,0.481,10.635,-2.373,-3.537,2.561,-1.951
125.4,0.244,10.18,-1.865,-7.378,1.341,-2.683
125.45,0.062,10.247,-2.03,-10,3.11,-3.11
125.5,0.055,10.065,-2.172,-6.402,0.671,-1.28
125.55,-0.007,10.013,-1.992,-7.378,-0.244,-2.195
125.6,0.299,10.022,-1.719,-3.476,1.037,-1.89
125.65,0.01,10.475,-1.769,-0.793,3.72,-2.012
125.7,0.067,10.13,-1.494,-3.415,0.915,-2.256
125.75,0.141,10.429,-1.671,-1.89,1.22,-3.476
125.8,0.898,10.499,-1.982,-3.659,1.402,-2.622
125.85,0.06,11.011,-1.48,-7.683,1.829,-3.354
125.9,-0.366,9.946,-1.741,-7.378,1.22,-2.561
125.95,0.539,10.156,-1.642,-7.317,1.22,1.159
126,0.065,9.704,-1.116,-3.659,0.244,-0.244
126.05,0.575,10.051,-1.504,-1.89,2.805,-2.012
126.1,0.165,10.132,-1.214,-1.524,1.951,-2.5
126.15,0.132,10.056,-1.432,-2.317,2.134,-2.317
126.2,-0.146,10.53,-1.422,-1.646,1.402,-1.768
126.25,0.397,10.288,-1.532,-1.646,3.354,-2.988
126.3,0.213,10.044,-1.372,-0.732,1.098,-2.439
126.35,0.16,10.206,-1.125,-0.488,3.232,-1.829
126.4,0.345,10.08,-1.331,-0.305,2.805,-2.073
126.45,0.268,10.149,-1.255,15.488,2.378,-2.927
126.5,0.081,10.379,-1.358,-0.976,2.073,-1.951
126.55,0.273,9.835,-1.286,-15.61,2.805,-1.768
126.6,0.441,10.046,-1.259,15.427,2.5,-2.5
126.65,0.165,10.017,-1.451,-0.915,2.134,-1.524
126.7,0.328,9.357,-1.946,-5.671,7.134,-15.366
126.75,0.299,10.716,-1.42,-10.122,1.098,-1.707
126.8,0.39,9.27,-1.307,-16.951,3.78,-4.634
126.85,0.266,9.412,-1.168,-19.573,3.232,-4.451
126.9,0.421,10.12,-0.797,-11.28,5.915,-2.744
126.95,-0.017,9.888,-0.239,-0.854,4.878,-0.732
127,-0.026,9.85,-0.153,-5.671,8.72,-0.366
127.05,0.493,9.977,-0.12,3.72,8.537,-4.634
127.1,0.565,9.347,-0.345,9.085,4.817,-5.732
127.15,0.182,10.343,-0.33,8.11,10,-4.207
127.2,-0.208,9.78,-0.84,13.049,12.5,-1.463
127.25,-0.117,9.27,-0.469,13.78,5.793,-2.988
127.3,-0.393,10.819,-1.228,11.646,-15.488,-4.695
127.35,0.773,9.893,-1.164,6.951,6.89,-6.22
127.4,-0.105,10.094,-1.211,7.927,7.439,-11.951
127.45,0.204,10.549,-1.523,5.549,3.476,-14.329
127.5,-0.227,10.092,-1.123,0.122,3.841,-8.537
127.55,-0.843,10.321,-1.137,-2.988,0.976,-1.098
127.6,-0.287,9.931,-1.037,-1.159,2.866,4.756
127.65,-0.678,9.419,-0.769,8.537,-2.012,20.427
127.7,-1.101,9.512,-0.967,9.085,-5.549,26.768
127.75,0.5,8.957,-0.919,28.537,-14.756,12.805
127.8,2.358,9.816,-2.03,19.268,-13.415,-3.293
127.85,1.465,10.295,-2.021,10.61,1.463,-12.683
127.9,0.251,10.669,-2.009,6.22,2.317,-12.561
127.95,-0.675,10.728,-2.564,4.329,1.707,-0.854
128,0.682,10.398,-1.487,5.122,-6.28,2.439
128.05,0.488,9.222,-1.805,17.622,-3.232,3.598
128.1,0.553,10.032,-2.313,17.134,0.915,1.463
128.15,0.749,10.877,-2.298,17.988,-1.28,15.488
128.2,0.381,10.733,-2.526,17.805,15.305,-5
128.25,0.9,10.094,-2.351,22.256,0.61,-4.268
128.3,0.35,9.934,-3.091,20.183,6.28,15.366
128.35,0.318,11.265,-4.24,11.341,0.671,-5.183
128.4,1.966,10.731,-3.929,-6.524,-3.659,-34.39
128.45,-0.472,10.566,-3.847,-19.573,-0.244,-19.817
128.5,-1.717,9.924,-2.394,-25.732,0.549,3.049
128.55,-0.206,9.392,-1.362,-8.354,6.585,9.39
128.6,1.441,9.795,-1.832,19.451,2.622,0.427
128.65,0.972,10.202,-3.452,17.073,2.256,-5.366
128.7,-0.189,9.79,-3.642,-22.5,1.829,-0.305
128.75,-0.22,10.271,-2.816,-27.073,1.89,-1.22
128.8,0.587,9.661,-2.442,-27.683,2.134,-2.012
128.85,0.18,9.572,-1.35,-11.951,2.5,-3.293
128.9,-0.237,10.209,-1.817,7.805,2.805,-2.561
128.95,0.127,10.41,-2.32,17.744,3.841,1.646
129,0.599,9.902,-3.038,14.512,2.805,-0.915
129.05,0.22,10.29,-3.1,-0.976,1.646,-4.329
129.1,-0.005,9.862,-2.638,-8.11,2.073,0.061
129.15,0.237,10.056,-2.035,-6.829,3.171,2.073
129.2,0.474,10.18,-2.387,-4.756,-0.061,-4.939
129.25,0.05,9.673,-2.049,-13.659,0.732,-3.598
129.3,-0.235,9.749,-2.428,3.72,2.866,0.915
129.35,0.682,10.412,-2.306,2.5,5.366,-6.28
129.4,0.098,9.208,-2.535,2.805,4.817,-5.854
129.45,-0.247,10.08,-2.504,3.72,5.366,2.866
129.5,0.95,10.305,-2.784,1.402,3.598,-2.866
129.55,0.036,10.104,-2.607,-1.829,2.317,-5
129.6,-0.232,9.962,-2.332,-3.293,2.012,15.488
129.65,0.642,9.905,-2.49,-3.049,6.22,-0.854
129.7,0.792,10.238,-2.406,-6.585,8.78,-10.488
129.75,-0.218,10.307,-2.375,-11.098,7.439,-8.232
129.8,0.23,9.776,-1.872,-10.122,6.28,-0.305
129.85,-0.218,9.768,-1.961,-2.439,1.28,0
129.9,0.599,10.381,-1.8,5.671,3.049,-3.11
129.95,0.156,9.541,-2.219,8.232,3.476,-2.378
130,-0.57,10.163,-2.409,9.207,2.683,-0.488
130.05,-0.134,9.91,-2.404,8.293,2.378,-0.854
130.1,-0.153,10.168,-2.567,7.317,2.561,-1.28
130.15,0.266,10.357,-2.806,6.646,2.439,-0.915
130.2,0.089,9.878,-2.885,2.5,2.134,-2.012
130.25,0.12,10.427,-2.72,1.463,1.524,-0.122
130.3,0.122,10.111,-2.909,4.024,2.073,-0.549
130.35,0.201,9.778,-2.433,7.988,-2.073,-4.207
130.4,0.29,9.996,-2.682,16.829,-2.988,-2.073
130.45,0.072,10.434,-2.921,16.707,-1.707,-3.963
130.5,0.376,9.864,-3.946,7.744,1.463,-6.037
130.55,-0.443,9.912,-3.694,-11.341,2.744,-2.5
130.6,0.192,10.084,-2.705,-16.098,4.024,2.195
130.65,0.742,10.092,-2.025,-2.988,1.585,-0.854
130.7,0.177,10.087,-2.622,4.756,3.171,-3.659
130.75,0.488,10.072,-3.297,-1.585,2.866,-9.634
130.8,0.441,10.25,-3.069,-11.341,0.61,-12.927
130.85,-0.196,9.663,-2.595,-14.878,2.134,-4.451
130.9,-0.637,10.278,-2.591,-17.683,2.012,2.744
130.95,-0.077,10.23,-2.066,-18.963,0.915,5.366
131,0.072,10.288,-2.239,-18.415,-0.61,2.927
131.05,0.232,9.677,-1.951,-18.598,-3.659,-3.049
131.1,0.275,10.374,-1.753,-16.707,0.244,-4.573
131.15,-0.127,10.331,-1.932,-11.28,2.561,-3.598
131.2,-0.151,9.572,-1.755,-11.098,3.171,-0.061
131.25,0.002,9.723,-1.295,-13.476,1.22,0.671
131.3,0.069,10.017,-1.633,-11.159,1.585,-0.915
131.35,0.335,10.242,-1.41,-12.561,4.512,-2.744
131.4,-0.089,9.658,-1.202,-10.183,0.61,-2.195
131.45,-0.426,10.154,-0.797,-3.72,0.915,6.646
131.5,-0.395,10.02,-1.041,-0.915,4.085,6.463
131.55,0.713,9.931,-1.058,4.756,4.451,2.805
131.6,1.142,9.819,-1.279,5.305,2.256,-5.549
131.65,0.192,10.175,-1.137,1.341,1.341,-7.683
131.7,0.014,10.707,-1.508,-4.329,3.476,-5.915
131.75,0.948,10.183,-1.197,-10.366,10.915,-18.963
131.8,0.4,10.594,-0.776,-7.439,8.232,-18.049
131.85,-0.467,9.828,-0.256,0.793,5.854,-11.341
131.9,-0.694,9.603,-0.606,9.024,7.988,-2.439
131.95,-0.309,10.084,-1.085,15.854,4.451,-4.329
132,0.103,9.857,-1.295,18.78,4.512,-6.707
132.05,-0.201,10.214,-1.42,15.122,8.232,-7.927
132.1,-0.318,9.457,-1.65,17.561,9.634,-6.829
132.15,-0.73,9.725,-1.741,13.72,9.573,-4.207
132.2,-0.426,10.149,-2.064,11.951,9.695,-3.476
132.25,-0.16,10.855,-2.217,13.72,7.622,-3.537
132.3,-0.211,9.541,-2.138,17.195,7.134,-2.866
132.35,-0.895,10.542,-2.531,12.317,11.28,1.098
132.4,-0.699,10.013,-2.346,12.5,9.573,2.927
132.45,-0.275,9.929,-2.519,17.195,9.451,6.768
132.5,-0.4,10.223,-3.002,25.183,-1.402,9.329
132.55,0.711,9.79,-3.824,17.683,5.366,5.427
132.6,0.014,10.501,-4.283,-5.122,0.915,-1.402
132.65,0.338,10.932,-3.318,-21.585,3.598,-4.573
132.7,0.804,10.068,-2.306,-23.476,2.744,-16.463
132.75,0.443,9.072,-2.133,-5.244,-0.244,-26.402
132.8,0.802,10.321,-1.621,9.939,1.402,-24.085
132.85,-0.912,9.694,-1.563,26.585,-8.841,-19.939
132.9,-2.294,9.764,-3.079,37.927,-10.549,-3.598
132.95,-1.377,9.527,-2.904,37.195,0.488,7.5
133,-1.432,9.67,-3.108,33.841,0.732,13.415
133.05,-0.369,9.857,-3.553,19.512,0.732,12.988
133.1,-0.031,9.558,-3.867,22.012,8.415,10.061
133.15,-0.05,10.199,-4.877,15,-1.098,11.341
133.2,-0.385,10.111,-5.246,11.707,-8.72,2.012
133.25,0.227,9.187,-4.561,12.195,-1.524,-5.244
133.3,-0.189,9.242,-3.603,16.341,2.439,-4.39
133.35,-1.788,9.383,-4.796,14.268,-23.598,8.049
133.4,-0.139,10.716,-4.944,2.195,-2.927,7.134
133.45,-0.879,9.673,-5.083,-15.122,10.915,16.89
133.5,0.026,9.33,-3.833,-10.549,20.549,21.037
133.55,-0.354,8.892,-4.685,-1.28,12.561,16.524
133.6,1.664,10.376,-3.553,-20,7.378,6.341
133.65,1.925,9.632,-3.577,-10.122,6.22,-7.439
